%% LaTeX2e file `ImuA.dat'
%% generated by the `filecontents' environment
<<<<<<< Updated upstream
%% from source `tikz/main-figure4' on 2019/06/12.
%%
Time aX aY aZ gX gY gZ
   0.76393   -6.08614   -0.42951   -7.62353   -0.08984    0.11296    0.10305
   0.81041   -6.08136   -0.42473   -7.62593   -0.11274    0.06716    0.08778
   0.85691   -6.08016   -0.44148   -7.62832   -0.12038    0.08243    0.08015
   0.88028   -6.08614   -0.43071   -7.63071   -0.12801    0.08243    0.05725
   0.90310   -6.07538   -0.42473   -7.61755   -0.11274    0.09006    0.08015
   0.92617   -6.07657   -0.44028   -7.63191   -0.10511    0.09770    0.08778
   0.95032   -6.07418   -0.42832   -7.63191   -0.12038    0.08243    0.08015
   0.97303   -6.07179   -0.42592   -7.63191   -0.12801    0.12823    0.09541
   0.99724   -6.06939   -0.43190   -7.63550   -0.12038    0.09006    0.08778
   1.01982   -6.08614   -0.42951   -7.63669   -0.12801    0.09770    0.09541
   1.04269   -6.07777   -0.42712   -7.64148   -0.15091    0.12060    0.09541
   1.11311   -6.08375   -0.42473   -7.64028   -0.12038    0.09770    0.09541
   1.18440   -6.08016   -0.41874   -7.62712   -0.12801    0.12823    0.08015
   1.20729   -6.08016   -0.42233   -7.63191   -0.11274    0.08243    0.08015
   1.25332   -6.08854   -0.42712   -7.63669   -0.12038    0.09770    0.09541
   1.29958   -6.08375   -0.42832   -7.63310   -0.10511    0.07480    0.09541
   1.32309   -6.08734   -0.42832   -7.62593   -0.10511    0.07480    0.09541
   1.34665   -6.08136   -0.42951   -7.63550   -0.11274    0.06716    0.06488
   1.37010   -6.08136   -0.44028   -7.64028   -0.11274    0.06716    0.09541
   1.39329   -6.09093   -0.44028   -7.63191   -0.12801    0.09006    0.07251
   1.41606   -6.09332   -0.42712   -7.64268   -0.08984    0.10533    0.05725
   1.46310   -6.09093   -0.42233   -7.63191   -0.10511    0.12823    0.08015
   1.69557   -6.08973   -0.43669   -7.63430   -0.08984    0.11296    0.08015
   1.74164   -6.07897   -0.43071   -7.62593   -0.12038    0.10533    0.08015
   1.76564   -6.08136   -0.42473   -7.63430   -0.10511    0.11296    0.08015
   1.81208   -6.08136   -0.42592   -7.63430   -0.12801    0.07480    0.08778
   1.83505   -6.08016   -0.43071   -7.63550   -0.10511    0.09006    0.08015
   1.85801   -6.08973   -0.42233   -7.62712   -0.10511    0.08243    0.08778
   1.90470   -6.07897   -0.43430   -7.62353   -0.11274    0.09006    0.08778
   1.95078   -6.08614   -0.43071   -7.63909   -0.15091    0.12060    0.07251
   1.97461   -6.07777   -0.43071   -7.62353   -0.13564    0.11296    0.09541
   1.99750   -6.09332   -0.42951   -7.61875   -0.13564    0.09770    0.06488
   2.02062   -6.08973   -0.43430   -7.62832   -0.12801    0.09770    0.09541
   2.04462   -6.08136   -0.42712   -7.62951   -0.11274    0.10533    0.09541
   2.06759   -6.09093   -0.43908   -7.63191   -0.12038    0.10533    0.07251
   2.09096   -6.08734   -0.43190   -7.62473   -0.13564    0.10533    0.05725
   2.11501   -6.08854   -0.44028   -7.63310   -0.12038    0.10533    0.07251
   2.13783   -6.08495   -0.44028   -7.64507   -0.11274    0.09006    0.09541
   2.16152   -6.07897   -0.43190   -7.64268   -0.10511    0.12060    0.05725
   2.18535   -6.07538   -0.42832   -7.63310   -0.15091    0.09770    0.06488
   2.20837   -6.08495   -0.43549   -7.63191   -0.13564    0.09770    0.04198
   2.23132   -6.08854   -0.42592   -7.63071   -0.10511    0.09770    0.06488
   2.37096   -6.09332   -0.43549   -7.63669   -0.10511    0.11296    0.08015
   2.39496   -6.08255   -0.42114   -7.63430   -0.15854    0.12823    0.06488
   2.41776   -6.07418   -0.43789   -7.62951   -0.09748    0.13586    0.09541
   2.44167   -6.08136   -0.44148   -7.64028   -0.12801    0.09770    0.09541
   2.48777   -6.08016   -0.43908   -7.61277   -0.12038    0.11296    0.07251
   2.51090   -6.07897   -0.43789   -7.63310   -0.12038    0.09770    0.07251
   2.53389   -6.08255   -0.43430   -7.63071   -0.13564    0.11296    0.07251
   2.60433   -6.08614   -0.43430   -7.62832   -0.15091    0.10533    0.08778
   2.62735   -6.08375   -0.42592   -7.61994   -0.10511    0.10533    0.08778
   2.78948   -6.08016   -0.43190   -7.62234   -0.08221    0.09770    0.08015
   2.81279   -6.07777   -0.42832   -7.63909   -0.09748    0.09770    0.09541
   2.83579   -6.09093   -0.42473   -7.63909   -0.12801    0.11296    0.05725
   2.88257   -6.07897   -0.42951   -7.62951   -0.11274    0.09770    0.05725
   2.90576   -6.08734   -0.42233   -7.64387   -0.09748    0.09006    0.04198
   2.95204   -6.07777   -0.43430   -7.63789   -0.07458    0.09006    0.05725
   2.99904   -6.08255   -0.43430   -7.63071   -0.12801    0.11296    0.05725
   3.02223   -6.07657   -0.43549   -7.63191   -0.12038    0.11296    0.09541
   3.20898   -6.09811   -0.43190   -7.63430   -0.12038    0.10533    0.05725
   3.25508   -6.08734   -0.44028   -7.63550   -0.08984    0.11296    0.09541
   3.27842   -6.09213   -0.43190   -7.63550   -0.08984    0.10533    0.08015
   3.30168   -6.08973   -0.41994   -7.63550   -0.08984    0.07480    0.08778
   3.32453   -6.07897   -0.42832   -7.63071   -0.09748    0.11296    0.11068
   3.46440   -6.07657   -0.42114   -7.63430   -0.10511    0.09770    0.09541
   3.48801   -6.07538   -0.42592   -7.61875   -0.09748    0.08243    0.10305
   3.53384   -6.07298   -0.42233   -7.64866   -0.11274    0.09770    0.07251
   3.58018   -6.08136   -0.41874   -7.63550   -0.12038    0.08243    0.09541
   3.60375   -6.08614   -0.41994   -7.63310   -0.10511    0.12823    0.08015
   3.62757   -6.08734   -0.42712   -7.63191   -0.11274    0.10533    0.09541
   3.67368   -6.08854   -0.42592   -7.63430   -0.12801    0.11296    0.08015
   3.69732   -6.08495   -0.42712   -7.63909   -0.13564    0.12060    0.08015
   3.74358   -6.08734   -0.42951   -7.62353   -0.11274    0.08243    0.07251
   3.76630   -6.07538   -0.42832   -7.62353   -0.12038    0.09006    0.07251
   3.83672   -6.08016   -0.42951   -7.63909   -0.11274    0.09006    0.08015
   3.88298   -6.08854   -0.43789   -7.64268   -0.09748    0.09006    0.08015
   3.92950   -6.08734   -0.42951   -7.63071   -0.13564    0.11296    0.09541
   3.95230   -6.08136   -0.42712   -7.62951   -0.10511    0.09770    0.08778
   3.97545   -6.08495   -0.43071   -7.63310   -0.13564    0.10533    0.06488
   4.02247   -6.08136   -0.42233   -7.63310   -0.15091    0.09770    0.08015
   4.04639   -6.08375   -0.42473   -7.62951   -0.12801    0.10533    0.08778
   4.06920   -6.08255   -0.43071   -7.63430   -0.12038    0.10533    0.10305
   4.11522   -6.09213   -0.42353   -7.63191   -0.12038    0.09770    0.09541
   4.13918   -6.08973   -0.42233   -7.63071   -0.08221    0.11296    0.11831
   4.18518   -6.08614   -0.44267   -7.64387   -0.08984    0.10533    0.06488
   4.27971   -6.08375   -0.42951   -7.63909   -0.10511    0.11296    0.08015
   4.34976   -6.08136   -0.43071   -7.63071   -0.10511    0.12060    0.08778
   4.37291   -6.08375   -0.42353   -7.62114   -0.12038    0.12060    0.07251
   4.44344   -6.08495   -0.40678   -7.64148   -0.10511    0.09006    0.07251
   4.46647   -6.07298   -0.41755   -7.64746   -0.08221    0.09006    0.08778
   4.48921   -6.08016   -0.42712   -7.63310   -0.11274    0.09770    0.07251
   4.51322   -6.08136   -0.41994   -7.63430   -0.10511    0.10533    0.08778
   4.55906   -6.08614   -0.42951   -7.62832   -0.10511    0.09770    0.08778
   4.62963   -6.08255   -0.43789   -7.61755   -0.12801    0.08243    0.09541
   4.72195   -6.09572   -0.43190   -7.64387   -0.14328    0.12060    0.04198
   4.74463   -6.09332   -0.43190   -7.62832   -0.12038    0.11296    0.08015
   4.76857   -6.07179   -0.43908   -7.63669   -0.14328    0.12060    0.07251
   4.79162   -6.07179   -0.44148   -7.64028   -0.15091    0.11296    0.06488
   4.86174   -6.07538   -0.43669   -7.63071   -0.12801    0.13586    0.07251
   4.88466   -6.09691   -0.44028   -7.64507   -0.12038    0.12823    0.08778
   4.90770   -6.08495   -0.43071   -7.62234   -0.13564    0.12823    0.08778
   4.93178   -6.08375   -0.42951   -7.63310   -0.12801    0.12823    0.07251
   4.95448   -6.08136   -0.42832   -7.64627   -0.13564    0.12060    0.07251
   5.04798   -6.08495   -0.41994   -7.63909   -0.14328    0.12060    0.08778
   5.11722   -6.08854   -0.43430   -7.63789   -0.12038    0.11296    0.11068
   5.18728   -6.08614   -0.42473   -7.62832   -0.12801    0.09770    0.10305
   5.21069   -6.07418   -0.41994   -7.62353   -0.10511    0.12060    0.10305
   5.25777   -6.08136   -0.42832   -7.62353   -0.15091    0.12060    0.10305
   5.28076   -6.07897   -0.43071   -7.62951   -0.12038    0.09770    0.11831
   5.32705   -6.08854   -0.43310   -7.63909   -0.12801    0.11296    0.06488
   5.37313   -6.08614   -0.42114   -7.63669   -0.14328    0.07480    0.10305
   5.39670   -6.09093   -0.42114   -7.63550   -0.13564    0.11296    0.10305
   5.46692   -6.08614   -0.43908   -7.61875   -0.06695    0.11296    0.05725
   5.48956   -6.08136   -0.44626   -7.63550   -0.08221    0.09006    0.06488
   5.51353   -6.07298   -0.44746   -7.63669   -0.09748    0.10533    0.08015
   5.55912   -6.08734   -0.42832   -7.63191   -0.12038    0.13586    0.09541
   5.58234   -6.08136   -0.42473   -7.64268   -0.12038    0.12823    0.08778
   5.60563   -6.08734   -0.43310   -7.65584   -0.11274    0.09006    0.11068
   5.65255   -6.07777   -0.42951   -7.64028   -0.10511    0.12823    0.07251
   5.81494   -6.08136   -0.42951   -7.62234   -0.12038    0.12823    0.09541
   5.86147   -6.08973   -0.43190   -7.63071   -0.09748    0.11296    0.08015
   5.88508   -6.07777   -0.43190   -7.64268   -0.08221    0.11296    0.08778
   5.93193   -6.09213   -0.42951   -7.62712   -0.11274    0.09770    0.04961
   5.95508   -6.08255   -0.43071   -7.63310   -0.12038    0.09006    0.08015
   6.00101   -6.08495   -0.42233   -7.62593   -0.12038    0.10533    0.07251
   6.11861   -6.08495   -0.42951   -7.62832   -0.12038    0.09006    0.08778
   6.16479   -6.08255   -0.42712   -7.63191   -0.07458    0.09006    0.08015
   6.18752   -6.08495   -0.42832   -7.63669   -0.09748    0.09006    0.09541
   6.23384   -6.09811   -0.43549   -7.62951   -0.07458    0.09770    0.08778
   6.28132   -6.08973   -0.43549   -7.63310   -0.10511    0.12823    0.10305
   6.32797   -6.08495   -0.43190   -7.63071   -0.11274    0.10533    0.05725
   6.39758   -6.08614   -0.43669   -7.62114   -0.12038    0.12060    0.11068
   6.49149   -6.07418   -0.42712   -7.62951   -0.12801    0.10533    0.10305
   6.51439   -6.07538   -0.43071   -7.63071   -0.11274    0.09770    0.09541
   6.53841   -6.07657   -0.43190   -7.62473   -0.12038    0.10533    0.08778
   6.56059   -6.07657   -0.42951   -7.62114   -0.12038    0.10533    0.08778
   6.60792   -6.08854   -0.41635   -7.62114   -0.12801    0.11296    0.06488
   6.63008   -6.08734   -0.42712   -7.62712   -0.12801    0.12060    0.09541
   6.67681   -6.08495   -0.43908   -7.62353   -0.13564    0.10533    0.08778
   6.70010   -6.08614   -0.43430   -7.63310   -0.11274    0.09770    0.09541
   6.72406   -6.08375   -0.42951   -7.63310   -0.09748    0.11296    0.08778
   6.79325   -6.07657   -0.43310   -7.63789   -0.12038    0.12823    0.07251
   6.86307   -6.07897   -0.43549   -7.62951   -0.11274    0.08243    0.07251
   6.93227   -6.08255   -0.42114   -7.64268   -0.12038    0.13586    0.10305
   7.00267   -6.08973   -0.43789   -7.62951   -0.11274    0.13586    0.10305
   7.07141   -6.07657   -0.42712   -7.63550   -0.12801    0.09770    0.08778
   7.09629   -6.07538   -0.43190   -7.64028   -0.10511    0.10533    0.08778
   7.11935   -6.08136   -0.42832   -7.63191   -0.09748    0.10533    0.09541
   7.16619   -6.07657   -0.43789   -7.62832   -0.10511    0.09770    0.11068
   7.18902   -6.07897   -0.43430   -7.64148   -0.08984    0.06716    0.09541
   7.23595   -6.08375   -0.41994   -7.63669   -0.12038    0.09006    0.11068
   7.28284   -6.08375   -0.42592   -7.63191   -0.08984    0.12060    0.08015
   7.30545   -6.08136   -0.42592   -7.64148   -0.10511    0.10533    0.07251
   7.35173   -6.09213   -0.43430   -7.63310   -0.12038    0.12823    0.07251
   7.37573   -6.08854   -0.42712   -7.62832   -0.15091    0.11296    0.07251
   7.39813   -6.08495   -0.42592   -7.62832   -0.13564    0.10533    0.08778
   7.42153   -6.08854   -0.42712   -7.61755   -0.12038    0.09770    0.08015
   7.46813   -6.08136   -0.43430   -7.63310   -0.13564    0.12060    0.10305
   7.53774   -6.08255   -0.42473   -7.63909   -0.12801    0.09770    0.11831
   7.56159   -6.08255   -0.43310   -7.62353   -0.10511    0.12823    0.10305
   7.58468   -6.08375   -0.43789   -7.62234   -0.12038    0.10533    0.09541
   7.60754   -6.07657   -0.43908   -7.63310   -0.12038    0.12060    0.12594
   7.67686   -6.08375   -0.42233   -7.63789   -0.12801    0.10533    0.08015
   7.79432   -6.08016   -0.42832   -7.63550   -0.09748    0.09770    0.07251
   7.81734   -6.08375   -0.42473   -7.63550   -0.10511    0.10533    0.07251
   7.84013   -6.07897   -0.42951   -7.63310   -0.10511    0.12060    0.08778
   7.86310   -6.07538   -0.43669   -7.63310   -0.10511    0.09006    0.08015
   7.91021   -6.08136   -0.42951   -7.61157   -0.11274    0.12060    0.11068
   7.95640   -6.08495   -0.42712   -7.63909   -0.11274    0.10533    0.06488
   7.97950   -6.07897   -0.42353   -7.63669   -0.12038    0.12060    0.07251
   8.04944   -6.09452   -0.42592   -7.64507   -0.09748    0.08243    0.08015
   8.07221   -6.08375   -0.42712   -7.65584   -0.12801    0.09770    0.06488
   8.09595   -6.07538   -0.43071   -7.63789   -0.13564    0.09006    0.08778
   8.14219   -6.08016   -0.42473   -7.61994   -0.11274    0.09770    0.09541
   8.25905   -6.07777   -0.43310   -7.61994   -0.09748    0.12823    0.07251
   8.28187   -6.08375   -0.42951   -7.62234   -0.11274    0.11296    0.08015
   8.32874   -6.08255   -0.43071   -7.64148   -0.15091    0.12060    0.10305
   8.35248   -6.08973   -0.42951   -7.62951   -0.12038    0.13586    0.10305
   8.37532   -6.08854   -0.43669   -7.62473   -0.10511    0.13586    0.11831
   8.44451   -6.14357   -0.48574   -7.61037   -0.15091   -0.02443   -0.12594
   8.74722   -6.11725   -0.43310   -7.62353   -0.63942   -0.50531   -1.01137
   8.77000   -6.10768   -0.43071   -7.59362   -0.66995   -0.47478   -1.10297
   8.91026   -5.98684   -0.33021   -7.65584   -0.22724    0.11296   -0.67552
   8.95717   -6.12204   -0.38285   -7.57687    0.07045    0.34195   -0.29387
   8.98027   -6.10050   -0.39242   -7.61516   -0.10511    0.34195   -0.43890
   9.00321   -6.05623   -0.36132   -7.63191   -0.17381    0.31905   -0.45416
   9.05013   -6.16391   -0.47378   -7.67259   -0.14328    0.50225   -0.43890
   9.07280   -6.22373   -0.56590   -7.54936   -0.05931    0.37248   -0.56103
   9.11902   -6.09811   -0.51446   -7.64028   -0.32647    0.31905   -1.01901
   9.16606   -6.11605   -0.45344   -7.57568   -0.41043    0.12060   -0.66789
   9.18972   -6.15913   -0.49412   -7.58644   -0.57836   -0.01680   -0.95031
   9.21248   -6.11007   -0.41276   -7.62832   -0.60889    0.02900   -1.24800
   9.25894   -6.04307   -0.38285   -7.71685   -0.31883    0.52514   -0.75948
   9.28185   -6.00718   -0.42592   -7.64028   -0.13564    0.84573   -0.37020
   9.35250   -6.18425   -0.59581   -7.56491   -0.69285    0.09006   -1.04190
   9.37510   -6.13639   -0.43549   -7.58884   -0.78445    0.01373   -1.24036
   9.39905   -6.06820   -0.38166   -7.69292   -0.75392    0.05953   -1.01137
   9.42208   -5.99522   -0.43430   -7.70250   -0.63179    0.28852   -0.79765
   9.44501   -6.00240   -0.48933   -7.58884   -0.60126    0.34959   -0.57629
   9.46764   -6.16152   -0.55992   -7.56730   -0.73865    0.24272   -0.55339
   9.49163   -6.23211   -0.52642   -7.55893   -0.86841    0.13586   -0.78238
   9.58481   -6.06939   -0.48574   -7.59243   -0.66995   -0.07786   -0.14121
   9.69997   -6.10888   -0.33739   -7.61157   -0.50203   -1.64263   -0.66789
   9.74678   -6.09213   -0.49771   -7.58764   -0.50203   -1.68843   -0.82818
   9.88653   -6.14357   -0.44267   -7.54457   -0.47149   -2.06244   -0.52286
   9.90900   -6.15075   -0.42233   -7.50030   -0.42570   -2.13877   -0.43890
   9.95705   -6.22971   -0.48215   -7.56371   -0.25777   -2.16167   -0.12594
   9.98024   -6.20459   -0.50608   -7.55294   -0.21961   -2.21510   -0.04198
  10.04973   -6.19382   -0.46181   -7.53619   -0.30357   -2.32960   -0.20227
  10.07259   -6.19861   -0.42114   -7.53021   -0.32647   -2.29143   -0.20991
  10.09644   -6.21895   -0.41157   -7.50030   -0.27304   -2.16930   -0.04961
  10.11964   -6.26561   -0.45823   -7.54098   -0.25777   -2.22274    0.12594
  10.16631   -6.24886   -0.50130   -7.49671   -0.24250   -2.23037    0.13358
  10.18933   -6.27996   -0.49173   -7.49193   -0.27304   -2.35250    0.23281
  10.28178   -6.31705   -0.49771   -7.47398   -0.28830   -2.39066    0.23281
  10.30548   -6.32543   -0.51565   -7.45484   -0.35700   -2.36013    0.02672
  10.35185   -6.32543   -0.43310   -7.43929   -0.32647   -2.45936    0.24044
  10.39884   -6.30389   -0.50847   -7.48953   -0.20434   -2.36776    0.24044
  10.46759   -6.29911   -0.48933   -7.44766   -0.44096   -2.32960    0.04198
  10.49162   -6.35055   -0.43789   -7.43570   -0.44096   -2.40593    0.06488
  10.53786   -6.34577   -0.47617   -7.41655   -0.50203   -2.45936    0.12594
  10.56081   -6.38525   -0.47976   -7.36750   -0.48676   -2.52042    0.19464
  10.60737   -6.40080   -0.48335   -7.36630   -0.49439   -2.61202    0.16411
  10.63058   -6.36132   -0.43669   -7.37348   -0.43333   -2.53569    0.13358
  10.65335   -6.38644   -0.45464   -7.32682   -0.54782   -2.63492    0.20227
  10.69992   -6.43430   -0.47617   -7.32922   -0.70048   -2.61202   -0.09541
  10.74691   -6.46421   -0.44506   -7.33998   -0.83025   -2.85627    0.01145
  10.76979   -6.47857   -0.44148   -7.36271   -0.71575   -2.79521    0.04961
  10.81646   -6.51207   -0.43549   -7.33998   -0.36463   -2.41356   -0.14884
  10.88613   -6.11964   -0.61974   -7.31845   -2.16602   -2.17694   -2.18685
  10.93218   -6.76331   -0.47019   -7.61755   -3.07435   -3.17686   -1.46172
  10.98114   -6.54557   -0.37328   -7.26820   -2.91405   -2.89444   -1.56858
  11.00366   -6.61376   -0.31585   -7.35554   -2.67743   -2.55859   -1.68308
  11.07418   -6.55155   -0.42592   -7.24906   -2.31868   -2.02428   -1.98840
  11.16649   -6.50010   -0.47976   -7.28734   -2.65453   -2.89444   -1.45409
  11.25958   -6.57667   -0.56351   -7.17966   -2.69270   -2.00901   -2.14869
  11.28250   -6.61496   -0.63290   -7.16890   -2.67743   -2.23037   -2.16396
  11.51498   -6.70469    0.40080   -6.68315   -0.87604   -3.88673    0.34730
  11.53751   -7.14975   -0.46301   -7.46082   -1.40272   -4.16152    0.63736
  11.56146   -6.44148   -0.22493   -7.11267   -0.79208   -3.57378    0.08778
  11.60825   -7.02174   -0.53719   -7.30648   -0.90658   -3.00893    0.02672
  11.63148   -6.61017   -0.27996   -7.12463   -0.65469   -1.89452    0.25571
  11.67805   -6.82553    0.00120   -6.97747   -0.08221   -1.61973   -0.94268
  11.70131   -7.02892   -0.05982   -7.26820   -0.24250   -1.43654    0.08778
  11.74734   -6.36730   -0.79442   -6.57069   -0.51729   -0.16946   -0.55339
  11.81792   -6.45703   -0.79801   -7.54696   -1.13557   -0.03206    0.23281
  11.86458   -7.15813    0.11486   -7.15933    0.68109   -1.18465   -1.12587
  11.91026   -6.47617   -0.59701   -7.59602   -0.67759   -0.30685    1.30906
  11.95729   -6.84467    0.05145   -6.71426    1.39859   -1.49760   -1.20983
  11.97959   -7.53141    0.36371   -7.54098    1.00931   -0.97856    0.96557
  12.00558   -6.81476   -0.73938   -7.62712   -0.19671   -0.32975    2.27845
  12.02845   -6.18305   -1.01336   -7.03131   -0.46386    0.90679    0.75185
  12.05115   -6.39123   -0.29791   -6.19502    1.10090   -0.52058   -0.62209
  12.14402   -5.82892   -0.42353   -5.58724    0.42920    1.73116   -0.33967
  12.26087   -6.09930   -0.17827   -5.54896    1.43676    0.85336   -1.01901
  12.33074   -6.51326   -1.07318   -7.49791   -0.88368    1.06709    2.30898
  12.35372   -5.80738   -0.63529   -6.60060   -0.96764    1.86855    1.01901
  12.37675   -6.42951    0.26919   -6.34457    0.50553   -0.02443    1.24800
  12.42299   -8.21815   -1.51107   -8.41556   -1.48668    2.28073    1.35486
  12.44619   -6.15314   -0.38285   -7.91546   -0.09748    7.21929   -1.53042
  12.53885   -5.97607   -0.97747   -7.32563   -0.61652   -0.51294   -0.22517
  12.56219   -5.62792   -0.94158   -5.57049   -0.92947    0.21982   -0.75948
  12.58585   -7.06481   -0.29192   -6.84347   -0.86078   -3.14633   -0.59919
  12.60855   -7.71087   -0.16032   -8.23131   -1.16610   -2.59675    1.01901
  12.65573   -5.39103   -0.39721   -5.30250   -1.41799   -0.95566    0.05725
  12.70153   -8.06262    0.03589   -7.93340   -1.14320   -2.94024    0.20227
  12.74825   -5.34915   -0.93440   -5.24028   -2.31868   -0.35265    0.59919
  12.84158   -5.78226   -1.27896   -6.40439   -1.15083    1.15868   -0.48470
  12.88972   -7.49193    0.46899   -7.70250   -0.76155   -1.78765   -0.01908
  13.00444   -6.74896   -1.01456   -7.99322   -1.32639   -0.78010    1.15640
  13.07629   -7.82932    0.02393   -7.52184    0.13151   -0.63507    0.26334
  13.19135   -6.64248   -0.89252   -8.04228   -0.96001   -0.39845    0.32440
  13.21454   -5.58724   -0.64128   -6.41157   -1.25769    1.42584   -0.60682
  13.28552   -6.90210   -0.60778   -8.12124    0.01702    0.61674    0.86635
  13.30845   -5.77867   -0.68554   -6.70947   -0.59362    2.90664   -0.09541
  13.33164   -6.15793   -0.11127   -5.60758    2.76490    0.15113   -0.98084
  13.35484   -8.01715    0.21775   -7.61157    2.07793   -0.00153    0.20227
  13.51860   -6.00120   -0.75852   -7.04327   -1.32639    1.04419    1.38539
  13.58891   -8.40838   -1.18923   -7.46202   -0.70812    1.75406    2.53797
  13.63551   -5.73799   -0.02034   -6.07418    1.99396    7.19639   -2.16396
  13.65898   -6.31107    0.11007   -5.61595    2.18479    2.50972   -4.32409
  13.70501   -7.21436   -1.19761   -8.13320    0.11625    2.25784   -1.44645
  13.72863   -5.85165   -1.11745   -6.46660   -0.28067    2.41050   -1.07244
  13.75139   -6.28953   -0.71904   -6.33978    2.28402    0.27326   -2.01130
  13.79892   -7.15813   -0.24885   -8.42632   -0.46386    2.25020   -1.07244
  13.82191   -5.64586   -0.32423   -6.45225    1.36806    3.93710   -2.20212
  13.84544   -6.12204   -0.23330   -5.70090    2.84123    1.52507   -2.81276
  13.96143   -8.23610    0.72861   -7.73121    1.29936    0.53278   -2.49981
  13.98452   -7.70130   -0.33380   -8.73978    1.73444    2.44103   -0.45416
  14.00728   -5.77268   -1.25145   -7.70010   -0.23487    4.74619   -1.77467
  14.03040   -5.22353   -0.92363   -4.70070    2.44431    4.76146   -4.59888
  14.05462   -7.67259    0.51446   -7.05284    1.61231    1.70826   -4.40042
  14.07753   -7.88196   -0.06102   -8.57946    1.87184    3.30356   -0.81291
  14.10064   -5.96531   -1.63310   -8.14397   -0.14328    4.28821   -1.26326
  14.12358   -4.84905   -1.30528   -5.13739    1.87184    5.56292   -4.47675
  14.14686   -6.94277    0.26441   -6.55992    3.74192    2.21204   -5.74383
  14.21680   -5.10987   -1.51825   -6.67119    0.97114    7.16585   -3.48446
  14.23934   -5.85165   -0.69511   -5.66501    5.27615    3.86840   -5.95756
  14.28691   -7.61396   -0.79083   -8.57348    2.94809    4.61643   -1.36249
  14.31012   -5.73440   -1.38784   -8.02912    0.74979    6.05907   -2.33951
  14.33402   -4.98305   -1.18804   -5.18405    2.60460    6.13540   -4.49965
  14.37968   -8.01835    0.02991   -8.50648    2.99389    2.70818   -2.50744
  14.40279   -6.96551   -0.97149   -8.79602    2.29165    3.63941   -1.27853
  14.45020   -5.35155   -1.23709   -4.88973    3.34501    3.83023   -4.17143
  14.47329   -6.63171   -0.24646   -7.26700    1.58178    0.07480   -3.56079
  14.51930   -5.84926   -0.93440   -7.88435    1.07037    0.77703    1.17167
  14.54242   -5.60878   -1.30528   -5.52622   -0.70048    0.48698    0.53049
  14.61233   -6.46182   -0.58146   -8.23729    0.22311   -0.20762    0.11831
  14.65860   -6.65205   -0.96311   -6.35414   -0.39516   -1.75712    0.29387
  14.75152   -6.40200   -1.06720   -6.57189   -2.07442   -0.10839    0.56866
  14.77473   -6.68914   -0.86740   -8.24686   -2.48661   -1.26098   -0.85108
  14.82159   -5.90070   -0.53958   -6.53719   -0.74628    1.35714    0.13358
  14.84512   -6.74896   -0.89372   -7.31366   -0.47913    0.63964    0.17174
  14.86799   -7.01217   -1.00259   -8.21695   -0.41806    1.43347   -0.72132
  14.89186   -6.43191   -0.86740   -7.47278   -0.77681    2.96007   -1.35486
  14.91474   -6.39243   -0.86620   -6.99901    0.00938    3.25776   -1.73651
  14.96072   -6.80399   -0.69272   -7.87239   -0.70048    3.35699   -1.11060
  15.00729   -6.66162   -0.85065   -7.24906   -1.21190    4.61643    0.82055
  15.14738   -6.21895   -0.65922   -7.45604   -1.49432    7.34905    0.08015
  15.19374   -6.11247   -0.71904   -7.50868   -1.37219    6.86053    0.14121
  15.21675   -6.13759   -0.71067   -7.52064   -1.53248    6.92923    0.19464
  15.26330   -6.12921   -0.79920   -7.54816   -1.41799    6.67734    0.30150
  15.33389   -6.02154   -0.68315   -7.59602   -1.43325    6.70787    0.20991
  15.35751   -6.02273   -0.69033   -7.59841   -1.36456    6.67734    0.29387
  15.38096   -5.97129   -0.70110   -7.67617   -1.26533    6.51705    0.30150
  15.40337   -5.98565   -0.75374   -7.64985   -1.27296    6.66971    0.28624
  15.44973   -5.99163   -0.69870   -7.72882   -1.31112    6.68498    0.27860
  15.47365   -6.00479   -0.71186   -7.77308   -1.33402    6.69261    0.33204
  15.52059   -5.96770   -0.71426   -7.75275   -1.45615    7.12769    0.27097
  15.54352   -5.88395   -0.66162   -7.69891   -1.44089    7.32615    0.28624
  15.56635   -5.87199   -0.67478   -7.71805   -1.43325    7.34905    0.33967
  15.61352   -5.77388   -0.64965   -7.78146   -1.53248    7.35668    0.41600
  15.63624   -5.78824   -0.62453   -7.80539   -1.42562    7.05136    0.48470
  15.66030   -5.73560   -0.71067   -7.84008   -1.31876    6.78420    0.37020
  15.68306   -5.72124   -0.64965   -7.78864   -1.37982    6.65444    0.17938
  15.72943   -5.68894   -0.60897   -7.89871   -1.16610    6.53995    0.17938
  15.75233   -5.78106   -0.65803   -7.86401   -1.15083    6.28043    0.14884
  15.79905   -5.62912   -0.62931   -7.94776   -1.22716    6.57811   -0.01145
  15.89241   -5.57408   -0.63888   -8.00040   -1.02870    6.53232    0.04961
  15.91547   -5.61356   -0.65563   -8.06142   -0.91421    6.63918   -0.02672
  15.96152   -5.45803   -0.58385   -7.97647   -0.96001    6.68498    0.10305
  15.98551   -5.42812   -0.57069   -8.01596   -0.92184    6.69261    0.12594
  16.03126   -5.39582   -0.62213   -8.01476   -1.00580    6.53232   -0.07251
  16.05429   -5.35753   -0.61735   -8.09013   -0.96764    6.46362   -0.11068
  16.07726   -5.45803   -0.62094   -8.08535   -1.02870    6.35676   -0.03435
  16.10165   -5.39103   -0.56949   -8.07338   -0.97527    6.49415   -0.01145
  16.17146   -5.30489   -0.58385   -8.18106   -0.89894    6.41019   -0.06488
  16.19457   -5.24626   -0.59462   -8.12722   -0.91421    6.46362   -0.01908
  16.21746   -5.24985   -0.60179   -8.13919   -0.88368    6.23463    0.04961
  16.24041   -5.23789   -0.60538   -8.20977   -0.83788    6.26516    0.04961
  16.26469   -5.25823   -0.60419   -8.19901   -0.87604    6.25753   -0.03435
  16.31072   -5.21157   -0.54556   -8.23131   -0.96764    6.71551   -0.11068
  16.42639   -5.03330   -0.57188   -8.27199   -0.84551    6.33386   -0.15648
  16.56688   -4.90529   -0.54437   -8.31984   -0.87604    6.34149   -0.00382
  16.65869   -4.17787   -0.27159   -8.15594   -0.12038    3.02114    1.14113
  16.68164   -4.46022   -0.42712   -8.42393    0.34524    1.84565    1.04190
  16.75309   -4.76650   -0.64606   -8.34975   -0.10511    2.71582    0.95031
  16.79921   -4.38724   -0.31825   -8.51127    0.43683    2.02885    1.79757
  16.84540   -4.64447   -0.68913   -8.14756   -0.72338    0.33432    2.63720
  16.86829   -4.96870   -0.79801   -8.60220   -0.50966   -0.34502    1.71361
  16.91556   -4.80838   -0.54317   -8.31267   -0.58599   -1.13885    1.22510
  16.93876   -4.92802   -0.49651   -8.49572   -0.56309   -1.34494    1.16403
  16.96156   -4.88973   -0.50249   -8.46940   -0.41806   -1.39074    0.98847
  17.00763   -4.82034   -0.40558   -8.43470   -0.40280   -1.61973    0.92741
  17.03078   -4.86700   -0.50369   -8.46940   -0.37990   -1.66553    0.91214
  17.10067   -4.88255   -0.53121   -8.42154   -0.38753   -1.59683    0.88161
  17.14875   -4.86939   -0.45823   -8.41316   -0.38753   -1.77239    1.03427
  17.19477   -4.85982   -0.48335   -8.37249   -0.37990   -1.87162    1.02664
  17.21762   -4.87657   -0.48096   -8.41556   -0.29594   -1.94795    0.95794
  17.31015   -4.91366   -0.48574   -8.36650   -0.37990   -2.05481    1.04190
  17.35730   -4.91127   -0.46780   -8.33540   -0.31120   -1.94031    0.96557
  17.38027   -4.92323   -0.47019   -8.36890   -0.32647   -2.00901    0.82818
  17.40410   -4.93639   -0.44626   -8.36292   -0.35700   -2.12351    0.81291
  17.42720   -4.96870   -0.47617   -8.38804   -0.31120   -2.16930    0.82818
  17.51961   -5.03091   -0.46540   -8.37368   -0.33410   -2.26853    0.83581
  17.58915   -5.01655   -0.44387   -8.30309   -0.39516   -2.32196    0.80528
  17.68240   -5.06321   -0.45224   -8.33779   -0.29594   -2.45936    0.43890
  17.70528   -5.04048   -0.45344   -8.29352   -0.33410   -2.51279    0.46943
  17.77640   -5.06561   -0.45105   -8.32583   -0.34173   -2.49752    0.29387
  17.84519   -5.11227   -0.45464   -8.27079   -0.35700   -2.55095    0.32440
  17.86899   -5.16371   -0.39960   -8.27199   -0.31883   -2.53569    0.30150
  17.91567   -5.18884   -0.41874   -8.24447   -0.37990   -2.52042    0.43126
  17.98600   -5.17328   -0.42592   -8.22772   -0.28067   -2.65018    0.40837
  18.03184   -5.17328   -0.45464   -8.17867   -0.41043   -2.80284    0.36257
  18.07912   -5.20080   -0.39721   -8.22413   -0.26540   -2.65782    0.17938
  18.10143   -5.25584   -0.39960   -8.22054   -0.28067   -2.64255    0.25571
  18.12458   -5.19482   -0.39840   -8.19542   -0.34937   -2.54332    0.34730
  18.26519   -5.37069   -0.41874   -8.21695   -0.31883   -2.53569    0.20227
  18.42843   -5.38146   -0.43071   -8.18465   -0.29594   -2.58912    0.40073
  18.63756   -5.41974   -0.40917   -8.07458   -0.30357   -2.53569    0.27860
  18.68346   -5.52144   -0.35055   -8.08774   -0.37227   -2.67308    0.10305
  18.70635   -5.41855   -0.36730   -8.03390   -0.34937   -2.52806    0.16411
  18.82350   -5.48914   -0.41755   -8.05903   -0.28830   -2.55859    0.43126
  18.84650   -5.47837   -0.41276   -8.03510   -0.36463   -2.55859    0.34730
  18.86950   -5.51067   -0.36251   -8.00519   -0.31883   -2.56622    0.26334
  18.91555   -5.46640   -0.37208   -8.02074   -0.27304   -2.42883    0.37783
  18.98619   -5.50828   -0.38644   -7.99681   -0.28830   -2.37540    0.16411
  19.05544   -5.61476   -0.34696   -7.97647   -0.43333   -2.68072    0.11068
  19.10264   -5.63270   -0.34337   -8.00160   -0.34173   -2.61965    0.25571
  19.12560   -5.58006   -0.36969   -7.92264   -0.28067   -2.49752    0.28624
  19.17281   -5.56929   -0.34457   -7.89392   -0.29594   -2.48226    0.27097
  19.19597   -5.58844   -0.37328   -7.97528   -0.31120   -2.45173    0.33204
  19.24276   -5.61954   -0.40319   -7.94058   -0.31120   -2.42883    0.20991
  19.26542   -5.63270   -0.33380   -7.92981   -0.27304   -2.39829    0.24044
  19.33493   -5.63629   -0.39840   -7.89153   -0.27304   -2.30670    0.13358
  19.42912   -5.71406   -0.35773   -7.83051   -0.43333   -2.61965   -0.02672
  19.45169   -5.72602   -0.33739   -7.92383   -0.35700   -2.52806    0.08778
  19.49810   -5.75833   -0.36132   -7.94896   -0.25777   -2.46699    0.19464
  19.52098   -5.73320   -0.33619   -7.82812   -0.29594   -2.55095    0.15648
  19.54493   -5.72483   -0.33260   -7.88914   -0.34173   -2.42883    0.20227
  19.59091   -5.78943   -0.40558   -7.88315   -0.33410   -2.39829    0.30914
  19.66043   -5.74277   -0.30150   -7.79462   -0.28067   -2.35250    0.38547
  19.68446   -5.82293   -0.39601   -7.86880   -0.30357   -2.33723    0.33204
  19.70742   -5.79781   -0.38644   -7.79103   -0.31120   -2.35250    0.14121
  19.73008   -5.80858   -0.33619   -7.79821   -0.37990   -2.29907    0.06488
  19.75312   -5.86600   -0.34816   -7.82094   -0.33410   -2.42119    0.11831
  19.80006   -5.78584   -0.33978   -7.71207   -0.44096   -2.44409   -0.03435
  19.86953   -5.89352   -0.34696   -7.81974   -0.28830   -2.44409    0.20227
  19.89259   -5.84088   -0.32901   -7.70967   -0.31883   -2.43646    0.16411
  19.93941   -5.86361   -0.30269   -7.74198   -0.34173   -2.44409    0.34730
  19.96230   -5.89591   -0.39362   -7.78146   -0.33410   -2.47462    0.33967
  19.98643   -5.89831   -0.39123   -7.79103   -0.31120   -2.34486    0.19464
  20.03247   -5.88515   -0.29073   -7.72044   -0.29594   -2.33723    0.22517
  20.14816   -6.05264   -0.34457   -7.77548   -0.32647   -2.44409    0.08778
  20.17204   -5.95574   -0.36491   -7.67737   -0.45623   -2.48989   -0.01145
  20.19634   -5.97607   -0.30628   -7.70010   -0.41806   -2.50516    0.04961
  20.24371   -6.03948   -0.33858   -7.65584   -0.34173   -2.52806    0.20227
  20.26647   -5.97488   -0.34217   -7.70250   -0.31120   -2.41356    0.22517
  20.29074   -5.98325   -0.28953   -7.71446   -0.25014   -2.29907    0.24807
  20.35959   -6.03709   -0.35892   -7.68694   -0.24250   -2.34486    0.27860
  20.40673   -6.04427   -0.28235   -7.61755   -0.28830   -2.32196    0.41600
  20.45305   -6.05863   -0.35533   -7.57209   -0.29594   -2.32196    0.18701
  20.49932   -6.07538   -0.30269   -7.58166   -0.33410   -2.32196    0.20227
  20.52220   -6.17707   -0.36012   -7.65344   -0.39516   -2.51279    0.15648
  20.59176   -6.19382   -0.30508   -7.63669   -0.41806   -2.61202    0.20227
  20.61546   -6.11725   -0.33141   -7.55055   -0.34173   -2.45936    0.24807
  20.63933   -6.18904   -0.30987   -7.64387   -0.28830   -2.47462    0.20991
  20.66193   -6.09093   -0.25723   -7.58166   -0.25014   -2.48989    0.27860
  20.68518   -6.19861   -0.28116   -7.61635   -0.30357   -2.53569    0.35493
  20.70881   -6.07179   -0.33141   -7.57448   -0.41043   -2.42883    0.27860
  20.73178   -6.13041   -0.32064   -7.56132   -0.41043   -2.55095    0.21754
  20.75436   -6.22373   -0.31705   -7.59841   -0.36463   -2.48989    0.24044
  20.77755   -6.20339   -0.32782   -7.53500   -0.35700   -2.45936    0.29387
  20.82550   -6.20698   -0.25962   -7.56730   -0.21197   -2.29907    0.12594
  20.87133   -6.21895   -0.32901   -7.60559   -0.34173   -2.32196    0.18701
  20.89545   -6.22253   -0.36132   -7.43929   -0.51729   -2.45173    0.11068
  20.91829   -6.28953   -0.33021   -7.51227   -0.53256   -2.55095   -0.01145
  21.03408   -6.26920   -0.28235   -7.48475   -0.41043   -2.53569    0.08015
  21.05716   -6.30269   -0.29551   -7.50030   -0.41043   -2.56622    0.11831
  21.10427   -6.29911   -0.33619   -7.53619   -0.44860   -2.54332    0.01145
  21.22146   -6.28953   -0.27757   -7.37827   -0.29594   -2.36013    0.10305
  21.24407   -6.37089   -0.26800   -7.40698   -0.20434   -2.42883    0.16411
  21.26727   -6.34098   -0.28594   -7.37348   -0.27304   -2.42119    0.23281
  21.38364   -6.41157   -0.25603   -7.44646   -0.42570   -2.74941   -0.05725
  21.43012   -6.47976   -0.31585   -7.43330   -0.39516   -2.74178    0.04198
  21.52319   -6.49292   -0.27757   -7.35434   -0.41806   -2.67308    0.11831
  21.56891   -6.50130   -0.27039   -7.34597   -0.34937   -2.52806   -0.03435
  21.59264   -6.45823   -0.24048   -7.33041   -0.34937   -2.55859    0.02672
  21.70879   -6.51566   -0.29910   -7.18445   -0.41806   -2.67308    0.04198
  21.77837   -6.52044   -0.23689   -7.31845   -0.54019   -2.71125   -0.01908
  21.80120   -6.59223   -0.26441   -7.31605   -0.43333   -2.61202   -0.00382
  21.82490   -6.57907   -0.27517   -7.16291   -0.37990   -2.58912   -0.01908
  21.84868   -6.59462   -0.27039   -7.27657   -0.55546   -2.58912    0.04961
  21.87203   -6.58624   -0.26321   -7.18684   -0.55546   -2.74178    0.06488
  21.89492   -6.59821   -0.28116   -7.28854   -0.55546   -2.68072    0.04961
  21.91798   -6.52523   -0.26082   -7.23590   -0.42570   -2.33723    0.08778
  21.94124   -6.64846   -0.23928   -7.30289   -0.14328   -2.20747    0.20991
  21.96418   -6.65205   -0.23689   -7.16770    0.00175   -2.09297    0.20991
  21.98688   -6.67358   -0.22134   -7.18445    0.17731   -1.90978    0.14884
  22.01058   -6.64367   -0.19860   -7.20000    0.26127   -1.87162    0.17174
  22.12756   -6.60180   -0.37208   -7.20120   -0.11274   -1.98611   -0.14884
  22.15068   -6.66401   -0.27278   -7.16291   -0.23487   -2.06244   -0.30150
  22.17399   -6.64965   -0.22134   -7.13420   -0.23487   -2.03954   -0.17938
  22.19666   -6.70828   -0.26201   -7.17129   -0.22724   -2.20747   -0.07251
  22.21946   -6.65205   -0.27757   -7.13659   -0.15091   -1.98611   -0.10305
  22.26833   -6.70349   -0.27876   -7.12822   -0.21197   -1.94795   -0.27097
  22.33759   -6.69033   -0.26680   -7.08754   -0.18907   -2.06244   -0.02672
  22.45388   -6.74178   -0.27637   -7.17129   -0.13564   -1.87925   -0.01145
  22.47725   -6.71665   -0.30508   -7.06361   -0.23487   -1.97848   -0.04961
  22.52374   -6.73819   -0.27039   -7.02892   -0.41043   -1.98611   -0.39310
  22.54630   -6.79562   -0.24885   -7.13899   -0.40280   -1.96321   -0.33967
  22.56936   -6.74656   -0.25364   -7.05404   -0.21961   -1.84109   -0.27860
  22.59289   -6.73221   -0.28355   -7.06720   -0.14328   -1.63499   -0.26334
  22.73241   -6.84347   -0.29791   -7.02293   -0.04405   -1.71896   -0.01908
  22.75541   -6.80160   -0.31346   -6.98585   -0.07458   -1.65026   -0.04961
  22.82512   -6.76810    0.13639   -7.41655    1.81841   -0.28395    0.97321
  22.84902   -7.00499   -0.20698   -7.02054    2.79543    0.57858    1.15640
  22.87183   -7.19881   -0.22373   -7.35554    3.65033    1.65483    0.64499
  22.89497   -7.20000   -0.08734   -7.22154    5.03953    3.25776    0.24807
  22.91804   -7.24188   -0.06341   -7.16291    6.52033    4.96755   -0.19464
  23.01152   -5.29292   -0.42832   -6.65444    5.55858    3.59361    1.37012
  23.03399   -5.55135   -1.20120   -6.77887    3.34501   -1.61210    1.62965
  23.05793   -6.16870   -1.23948   -7.48953    0.94061   -3.04710    2.18685
  23.08215   -6.88295   -0.58146   -7.25384    0.58186   -3.74934    2.81276
  23.24377   -6.53839   -0.86381   -6.96670    2.88703   -0.58927    2.27845
  23.26915   -6.66042   -0.61496   -7.08515    2.75726   -0.79536    2.55324
  23.29223   -6.80997   -0.30628   -7.09472    2.68093   -0.71903    2.75170
  23.36252   -6.72742   -0.29073   -7.08036    2.26112   -0.23052    2.04183
  23.43125   -6.49173   -0.57547   -6.88894    1.55125   -0.80300    2.72116
  23.47765   -7.00259   -0.52881   -7.50987    1.28410   -2.01664    3.13335
  23.54754   -6.92842   -0.40199   -7.30648    1.43676   -0.40608    2.71353
  23.59420   -6.77767   -0.44626   -7.22513    1.48255   -0.89459    2.71353
  23.61673   -6.78365   -0.48455   -7.04806    1.16960   -0.75720    2.77460
  23.64042   -6.74417   -0.53480   -7.10549    1.14670   -0.95566    2.80513
  23.68688   -6.80160   -0.44985   -7.03609    0.89481   -1.06252    3.11045
  23.71047   -6.80519   -0.44387   -7.11625    1.01694   -1.04725    3.06465
  23.75637   -6.78485   -0.38405   -7.09592    0.62002   -0.96329    3.37760
  23.77960   -6.60419   -0.40558   -6.74297    0.10861   -0.76483    3.77452
  23.80287   -6.55873   -0.48574   -6.90210   -0.37990   -1.22281    4.41569
  23.84947   -6.61974   -0.96670   -6.51446   -3.18121   -0.79536    6.69032
  23.89673   -7.08874   -0.10050   -8.18226    0.32234   -0.48241    2.38531
  23.96581   -7.81496   -0.44267   -8.43470    1.96343   -2.09297    2.41584
  23.98886   -6.93799    0.23569   -7.02293    2.61224    1.47927    1.00374
  24.03533   -7.32802   -0.44985   -7.81017    2.32218   -1.13122    2.69827
  24.05831   -6.91885   -0.39601   -7.46920    2.62750    0.99076    1.33196
  24.08221   -6.47019   -0.14477   -6.08255    2.56644    0.72360    1.62201
  24.10598   -6.88535   -0.66640   -7.43330    1.38332   -0.96329    2.11816
  24.12891   -6.86262   -0.65922   -7.69412    1.04747    0.18166    0.75185
  24.15182   -6.45823   -0.23210   -6.71665    1.16960   -0.02443    0.65262
  24.17576   -6.00718   -0.37089   -6.21296   -0.23487   -1.74186    2.22502
  24.22115   -6.92363   -0.40917   -7.38664    0.05518   -2.68835    1.20983
  24.24471   -6.58385   -0.09093   -6.39960   -0.64705   -2.42119    2.16396
  24.26785   -7.55773   -0.69033   -7.40938   -0.15854   -2.55859    2.33188
  24.36265   -7.69891    0.32303   -8.02792    0.27654    1.03656   -1.11060
  24.38568   -6.50010   -0.17468   -7.37588    0.93298    1.98305   -0.14121
  24.40855   -6.22253   -0.52403   -5.55135    0.89481    2.51736   -0.75948
  24.43263   -7.76830   -0.40319   -7.18804    1.61995    0.50988   -1.53805
  24.45545   -7.67378   -0.16271   -7.82692    0.91008    2.03648   -0.50759
  24.50237   -6.15314   -0.37926   -5.10868    0.41393    3.26539   -0.91978
  24.57149   -6.00359   -0.29192   -6.48933   -0.56309    0.25036    0.92741
  24.75764   -6.64367   -0.11486   -5.52742    0.23074    0.48698    1.28616
  24.82718   -6.15195   -0.26321   -6.13280   -0.62415    1.63193    1.43882
  24.84975   -7.71446   -0.29551   -7.05524    1.05511   -1.29914    1.61438
  24.89653   -6.00718   -0.21655   -7.07199   -0.01351    2.18914    0.88161
  24.98948   -6.01197   -0.10528   -5.75354   -1.07450    3.25013    1.33196
  25.01315   -7.64148   -0.43549   -7.04567    0.46736   -0.10076    1.83574
  25.05927   -6.11964    0.05264   -7.02293   -0.83788    3.01350    1.30906
  25.12943   -7.21436    0.15793   -8.65963   -0.71575    3.44858    0.93504
  25.15227   -6.21655    0.11964   -5.56929   -2.11259    4.18898    2.43111
  25.19953   -6.82672   -0.07059   -7.95374   -1.08977    0.18166   -0.43126
  25.22249   -6.05025    0.13400   -6.22373   -0.60889    2.50972    0.16411
  25.26861   -7.20718   -0.91286   -8.27199   -0.44096   -1.65789    0.54576
  25.29152   -6.66042   -0.32423   -7.39382   -0.84551    2.36470   -0.43890
  25.31630   -6.50369   -0.00359   -5.44487   -0.81498    0.47935   -0.10305
  25.36296   -6.93679   -0.03829   -8.03988   -0.73102    0.61674    0.43126
  25.40900   -7.25265   -0.48694   -7.04208   -0.32647   -1.44417    0.59919
  25.43248   -7.37109   -0.26441   -8.28754   -0.70048    0.20456   -0.18701
  25.47925   -6.88774   -0.02871   -6.19382   -1.14320    0.70070    1.38539
  25.50202   -7.24786   -0.35892   -7.58525   -0.50203    0.22746    1.23273
  25.52593   -7.16052   -0.17707   -7.57448   -0.91421    2.67765    0.72895
  25.54894   -6.97149    0.00479   -6.74537   -0.88368    2.85321    0.97321
  25.57213   -7.09113   -0.13878   -7.03251   -0.45623    2.85321    1.23273
  25.59540   -7.22273   -0.26082   -7.42134   -0.47149    4.21952    0.60682
  25.68816   -7.02892   -0.14716   -7.30888    0.83375    8.02838   -0.34730
  25.71112   -6.91047   -0.18185   -7.20838    0.84138    8.75352   -0.48470
  25.73502   -6.70349   -0.12682   -7.09711    0.97878    8.96724   -0.46943
  25.75794   -6.68076   -0.17827   -7.11147    0.95588    9.01304   -0.45416
  25.80490   -6.59223   -0.18784   -7.16172    0.62002    8.60086   -0.54576
  25.87415   -6.61017   -0.20459   -7.33520    0.59713    8.43293   -0.51523
  25.89753   -6.59701   -0.20100   -7.29572    0.64292    8.63902   -0.64499
  25.94468   -6.53958   -0.14596   -7.33281    0.96351    9.15807   -0.69842
  25.96846   -6.48933   -0.18305   -7.35913    0.95588    9.44812   -0.64499
  26.03718   -6.23450   -0.31944   -7.35554    0.75742    8.66192   -0.18701
  26.06144   -6.27637   -0.23210   -7.36152    0.64292    8.57796   -0.16411
  26.10639   -6.27398   -0.15314   -7.46321    0.55896    8.31844   -0.12594
  26.15359   -6.31227   -0.24168   -7.53739    0.54369    8.57796   -0.07251
  26.24722   -6.13161   -0.19023   -7.64866    0.44447    9.25730   -0.04198
  26.29286   -5.98206   -0.22851   -7.61277    0.36050    8.79168    0.11831
  26.36476   -5.93061   -0.25603   -7.72882    0.34524    8.17341    0.24044
  26.43398   -5.84686   -0.26201   -7.72642    0.14678    7.87572    0.39310
  26.48093   -5.86959   -0.24646   -7.80060    0.17731    7.65437    0.53049
  26.57393   -4.86939   -0.74417   -7.62114   -0.88368    7.08189    0.04198
  26.59676   -4.61815   -0.20698   -7.63430   -0.70048    4.06686   -0.37020
  26.64300   -5.20798    0.10050   -7.64985   -0.73102   -1.29151    2.62194
  26.66676   -5.86122   -0.25842   -7.89392   -0.49439   -1.70369    2.52271
  26.68968   -6.12921   -0.33141   -8.15833   -0.79971   -0.58927    1.45409
  26.73642   -5.66022   -0.39482   -7.78026   -0.71575    0.84573    0.25571
  26.78353   -5.41376   -0.34098   -7.78146    0.50553   -0.97092   -0.41600
  26.80629   -5.54776   -0.11127   -7.82453    0.91771   -1.76476   -0.75185
  26.82911   -5.94616    0.01316   -7.92742    0.87191   -2.00138   -0.62209
  26.85198   -6.05863   -0.13759   -7.99921    0.71162   -1.22281   -0.45416
  26.89861   -5.88395   -0.44506   -7.97528   -0.06695    0.02900   -0.23281
  26.92241   -5.71765   -0.48096   -7.85324   -0.05168   -0.10076   -0.14884
  26.94546   -5.66740   -0.33260   -7.84367    0.07045   -0.45188   -0.14884
  26.96848   -5.71167   -0.15912   -7.81735    0.23074   -0.84880   -0.17174
  27.06132   -5.73440   -0.32423   -7.79821    0.49790   -1.31441   -0.47706
  27.08496   -5.76192   -0.34457   -7.84607    0.55896   -1.64263   -0.50759
  27.22433   -5.80858   -0.29910   -7.78385    0.49790   -1.63499   -0.42363
  27.27100   -5.84208   -0.30508   -7.83649    0.49790   -1.61973   -0.27860
  27.29340   -5.88395   -0.25842   -7.90947    0.55896   -1.75712   -0.30914
  27.31690   -5.84686   -0.24646   -7.81496    0.40630   -1.41364   -0.30914
  27.33977   -5.79422   -0.26441   -7.76591    0.32997   -1.35257   -0.30150
  27.41124   -5.82772   -0.32064   -7.74317    0.49790   -1.71132   -0.27097
  27.50453   -5.92941   -0.31107   -7.79462    0.57423   -1.68843   -0.44653
  27.55009   -5.86959   -0.29791   -7.77189    0.75742   -1.88688   -0.61446
  27.66731   -5.75833   -0.29910   -7.67019    0.79558   -0.80300   -2.06473
  27.73609   -5.66860   -0.31825   -7.61277    2.31455   -0.61981   -5.05686
  27.83003   -5.27019   -0.57428   -7.10190    7.07754    0.47171  -10.76635
  27.85281   -6.65683   -0.19621   -8.97787    6.12342    1.23501  -12.55247
  27.89902   -7.41655   -0.75852   -7.99083   -0.53256    6.86053   -5.78200
  27.94564   -4.49133   -2.05543   -7.09352    0.62766    0.93733   -1.11060
  27.99233   -6.15673    0.09811   -8.01117    1.40622   -3.29899    0.02672
  28.01528   -6.50130    0.31585   -7.98963   -0.01351   -2.42119    0.52286
  28.03827   -6.13998    0.11486   -7.64627   -0.33410   -1.29151   -0.24807
  28.08505   -5.66860   -0.78006   -7.70848   -0.92184   -0.11603   -0.79765
  28.17806   -6.08136   -0.17468   -7.78385   -0.14328   -1.63499    0.41600
  28.20198   -6.08734   -0.12443   -7.73480   -0.51729   -1.03199    0.33967
  28.22561   -5.96172   -0.41755   -7.71685   -0.60126   -0.78773   -0.16411
  28.24852   -5.77986   -0.65563   -7.67737   -0.39516   -1.29914   -0.40837
  28.27146   -5.74158   -0.88056   -7.68335   -0.10511   -2.03954   -0.13358
  28.29428   -5.88874   -0.96670   -7.71685    0.06282   -2.48226    0.33204
  28.34112   -6.13639   -0.54317   -7.71207   -0.01351   -1.82582   -0.00382
  28.41166   -5.90668   -0.59342   -7.68694   -0.40280   -1.48997   -0.27097
  28.50429   -6.10529   -0.66162   -7.72523   -0.14328   -1.59683    0.22517
  28.55103   -5.95095   -0.49173   -7.66062   -0.49439   -0.90223    0.13358
  28.59789   -5.93540   -0.70229   -7.69891   -0.29594   -1.67316    0.26334
  28.64414   -6.03589   -0.68076   -7.67498   -0.01351   -2.07771    0.04198
  28.71377   -6.10409   -0.64128   -7.69651   -0.20434   -1.41364   -0.19464
  28.73688   -6.04068   -0.65324   -7.67019   -0.12038   -1.61210   -0.33204
  28.75969   -5.99881   -0.61017   -7.59123   -0.13564   -1.63499   -0.29387
  28.78378   -6.02872   -0.60538   -7.59841   -0.06695   -1.79529   -0.14884
  28.85349   -6.09811   -0.62453   -7.62832   -0.32647   -1.44417    0.05725
  28.87680   -6.11964   -0.60299   -7.60200   -0.37227   -1.39837    0.11831
  28.94669   -6.04307   -0.60538   -7.58285   -0.23487   -1.52050    0.20227
  28.96939   -6.06939   -0.61735   -7.60798   -0.28830   -1.47470    0.25571
  29.01614   -6.19861   -0.64726   -7.59960   -0.22724   -1.70369    0.02672
  29.06246   -6.14836   -0.62692   -7.57687   -0.26540   -1.43654    0.07251
  29.08581   -6.12204   -0.66760   -7.55773   -0.29594   -1.41364   -0.06488
  29.10968   -6.16630   -0.62931   -7.53978   -0.19671   -1.65026   -0.20991
  29.15565   -6.19143   -0.54317   -7.54696   -0.21197   -1.67316   -0.18701
  29.20270   -6.19382   -0.63051   -7.58285   -0.29594   -1.40600   -0.10305
  29.24908   -6.09691   -0.57787   -7.53021   -0.28067   -1.45180    0.08015
  29.34178   -6.16511   -0.56830   -7.48953   -0.34937   -1.48997    0.22517
  29.41316   -6.22732   -0.61017   -7.52184   -0.15854   -1.65789    0.11068
  29.48242   -6.23928   -0.61854   -7.47637   -0.25777   -1.55866   -0.11831
  29.52919   -6.27159   -0.59940   -7.53141   -0.26540   -1.58920   -0.34730
  29.55213   -6.22373   -0.61376   -7.49193   -0.22724   -1.45180   -0.29387
  29.57501   -6.25843   -0.62333   -7.45962   -0.31120   -1.48997   -0.20227
  29.59864   -6.22493   -0.62931   -7.50628   -0.28067   -1.50523   -0.08778
  29.66913   -6.26202   -0.60778   -7.50628   -0.28067   -1.52050    0.14884
  29.69204   -6.23570   -0.59462   -7.46441   -0.29594   -1.41364    0.19464
  29.71508   -6.24646   -0.60179   -7.48116   -0.34937   -1.36021    0.27097
  29.85417   -6.29552   -0.68794   -7.43211   -0.34937   -1.44417   -0.11831
  29.87794   -6.33500   -0.63769   -7.39382   -0.27304   -1.61210   -0.34730
  29.92362   -6.34337   -0.55513   -7.42971   -0.34937   -1.58156   -0.17174
  29.94759   -6.32662   -0.60897   -7.43809   -0.33410   -1.50523   -0.06488
  29.99395   -6.30868   -0.58624   -7.42613   -0.26540   -1.61973    0.08778
  30.11020   -6.31346   -0.58983   -7.43570   -0.26540   -1.33731    0.35493
  30.13304   -6.39721   -0.64247   -7.39143   -0.28067   -1.54340    0.33967
  30.15591   -6.37568   -0.65324   -7.36271   -0.21197   -1.53577    0.11831
  30.22652   -6.43191   -0.66999   -7.39263   -0.32647   -1.51287    0.05725
  30.34275   -6.41157   -0.59821   -7.35434   -0.34173   -1.42127   -0.11068
  30.38887   -6.39721   -0.58026   -7.35195   -0.32647   -1.58156    0.14884
  30.43749   -6.46062   -0.56231   -7.31725   -0.31883   -1.59683    0.12594
  30.50672   -6.41994   -0.65683   -7.29931   -0.37227   -1.43654    0.30150
  30.55259   -6.43071   -0.60778   -7.32922   -0.25014   -1.52050    0.08015
  30.64565   -6.47019   -0.63769   -7.32563   -0.41806   -1.48997   -0.34730
  30.69210   -6.48814   -0.56231   -7.31486   -0.47913   -1.43654   -0.19464
  30.76172   -6.45105   -0.60538   -7.27777   -0.30357   -1.58920    0.13358
  30.80862   -6.48335   -0.57188   -7.26581   -0.31120   -1.48233    0.09541
  30.83155   -6.48455   -0.55872   -7.28854   -0.28830   -1.34494    0.24807
  30.85557   -6.53719   -0.59342   -7.28973   -0.35700   -1.39074    0.31677
  30.87881   -6.52044   -0.63290   -7.27657   -0.31120   -1.39837    0.27097
  30.92482   -6.50728   -0.58146   -7.23948   -0.37990   -1.32967   -0.08778
  30.94855   -6.54796   -0.57188   -7.22034   -0.47913   -1.47470   -0.05725
  30.97152   -6.56471   -0.61974   -7.22991   -0.50203   -1.42890   -0.15648
  30.99431   -6.54198   -0.60778   -7.25265   -0.58599   -1.32967   -0.35493
  31.01809   -6.53839   -0.60060   -7.24906   -0.65469   -1.26861   -0.56103
  31.06453   -6.55992   -0.53719   -7.25743   -0.67759   -1.13122   -0.40837
  31.11140   -6.54078   -0.54317   -7.24906   -0.56309   -1.16938   -0.20991
  31.15724   -6.57428   -0.58265   -7.21077   -0.35700   -1.32967    0.09541
  31.18040   -6.56830   -0.57906   -7.22752   -0.37990   -1.29914    0.05725
  31.20362   -6.55873   -0.55394   -7.16531   -0.41806   -1.23808    0.07251
  31.25046   -6.60898   -0.62333   -7.21077   -0.34173   -1.30678    0.21754
  31.29744   -6.58026   -0.53121   -7.21795   -0.34937   -1.33731   -0.01145
  31.32033   -6.60180   -0.53599   -7.20479   -0.38753   -1.39074    0.05725
  31.34328   -6.64128   -0.61256   -7.22632   -0.37990   -1.42890    0.06488
  31.36632   -6.63171   -0.61017   -7.18206   -0.45623   -1.35257   -0.15648
  31.48392   -6.68555   -0.58863   -7.27179   -0.25777   -1.65789   -0.20991
  31.50718   -6.66880   -0.47258   -7.10908   -0.11274   -1.59683    0.17174
  31.57756   -6.71546   -0.58026   -7.17249   -0.25014   -1.36784    0.27860
  31.60041   -6.66042   -0.53001   -7.17488   -0.24250   -1.29914    0.29387
  31.62345   -6.68315   -0.55513   -7.13540   -0.16617   -1.48997    0.48470
  31.64630   -6.66042   -0.61496   -7.14138    0.00938   -1.68079    0.44653
  31.69355   -6.67597   -0.55274   -7.12822   -0.17381   -1.67316    0.21754
  31.76284   -6.69990   -0.60778   -7.06242   -0.34173   -1.71896   -0.01145
  31.83265   -6.73580   -0.55753   -7.13181   -0.36463   -1.48233    0.08778
  31.85555   -6.72862   -0.55394   -7.09592   -0.34937   -1.51287    0.15648
  31.90253   -6.69392   -0.54556   -7.08156   -0.25014   -1.61210    0.17174
  31.94953   -6.71426   -0.55035   -7.13779   -0.15854   -1.57393    0.32440
  31.99532   -6.77169   -0.60419   -7.09950   -0.13564   -1.65789    0.33204
  32.08918   -6.80878   -0.58505   -7.02413   -0.34173   -1.61973    0.11831
  32.15884   -6.79322   -0.56231   -7.05284   -0.46386   -1.51287    0.09541
  32.18195   -6.76929   -0.55394   -7.01815   -0.38753   -1.46707    0.12594
  32.20474   -6.78006   -0.53719   -7.03251   -0.33410   -1.50523    0.17938
  32.22784   -6.78844   -0.55035   -7.06242   -0.24250   -1.59683    0.15648
  32.27493   -6.81596   -0.49890   -7.04686   -0.26540   -1.53577    0.27860
  32.29803   -6.82194   -0.52283   -7.02772   -0.18907   -1.54340    0.34730
  32.32198   -6.79442   -0.56351   -7.02293   -0.18907   -1.63499    0.37020
  32.34450   -6.82074   -0.58744   -7.03370   -0.21197   -1.63499    0.24807
  32.41416   -6.86620   -0.55155   -7.03609   -0.28830   -1.53577    0.26334
  32.43716   -6.82912   -0.59342   -6.94756   -0.36463   -1.57393    0.13358
  32.46018   -6.87219   -0.57547   -6.97747   -0.44860   -1.65026   -0.02672
  32.55448   -6.84108   -0.52522   -6.96431   -0.50203   -1.38311    0.12594
  32.57803   -6.83629   -0.54197   -6.92244   -0.38753   -1.46707    0.16411
  32.60161   -6.84108   -0.52283   -6.99183   -0.23487   -1.58920    0.24044
  32.76462   -6.93201   -0.56590   -6.98465   -0.41043   -1.53577    0.17174
  32.78758   -6.91526   -0.55633   -6.87936   -0.54782   -1.41364    0.11831
  32.81059   -6.95952   -0.58146   -6.97269   -0.53256   -1.50523   -0.00382
  32.85744   -6.93440   -0.47019   -6.90808   -0.30357   -1.54340   -0.17174
  32.88026   -6.90210   -0.44985   -6.96311   -0.21961   -1.57393   -0.17174
  32.90418   -6.89372   -0.45942   -6.93919   -0.05931   -1.61973   -0.08778
  32.97404   -6.95833   -0.51326   -6.94277    0.23074   -1.86398    0.01145
  33.09015   -6.92722   -0.49771   -6.85065    0.07808   -1.48997    0.06488
  33.11297   -6.98943   -0.49771   -6.87578    0.19258   -1.58156    0.10305
  33.13702   -6.99063   -0.51924   -6.82912    0.23837   -1.72659    0.11831
  33.18309   -7.01097   -0.55394   -6.84826    0.19258   -1.78002   -0.04961
  33.25194   -6.98465   -0.54796   -6.80279    0.25364   -1.57393    0.09541
  33.29899   -6.99183   -0.51685   -6.84347    0.39103   -1.61973    0.17938
  33.32202   -7.03370   -0.51446   -6.84706    0.48263   -1.74949    0.24044
  33.36892   -7.00738   -0.52283   -6.76092    0.57423   -1.71132    0.29387
  33.39177   -7.02772   -0.52762   -6.82074    0.72689   -1.76476    0.39310
  33.43866   -7.05165   -0.60419   -6.80399    0.64292   -1.67316    0.38547
  33.46159   -7.05045   -0.55753   -6.77408    0.57423   -1.59683    0.32440
  33.50923   -7.07677   -0.54676   -6.74896    0.53606   -1.67316    0.33967
  33.57927   -6.85783   -0.21655   -6.97986    1.36043   -1.74949    0.89688
  33.60221   -6.87817   -0.47737   -6.74776    2.26875   -3.01657    1.38539
  33.67150   -7.18804   -0.50967   -6.72622    2.84123   -3.65774    0.77475
  33.69492   -7.29931   -0.63529   -6.75494    2.61987   -2.67308    1.10297
  33.71793   -7.17847   -0.72383   -6.70828    2.60460   -1.93268    1.33196
  33.74163   -7.04208   -0.69392   -6.76092    2.68857   -1.82582    1.54568
  33.76457   -7.03729   -0.59821   -6.78246    2.71910   -1.76476    1.74414
  33.81112   -7.02533   -0.69511   -6.82792    1.65811   -0.89459    1.27089
  33.83398   -7.11147   -0.64247   -6.67478    1.20777   -1.30678    0.98084
  33.88046   -7.01336   -0.62213   -6.68196    1.03984   -1.10832    0.95031
  33.90335   -7.10309   -0.80160   -6.59223    0.53606   -1.05489    1.05717
  33.92723   -7.20120   -0.80997   -6.76690    0.30707   -0.90986    0.70605
  33.99745   -7.51227   -0.85543   -6.72503   -0.66232   -0.33738    0.95031
  34.04355   -6.75374   -0.19741   -6.53599   -0.17381    0.30379    0.75185
  34.06640   -7.06481   -0.72263   -6.18545   -1.30349    0.45645    1.84337
  34.08942   -7.84128   -1.07557   -6.90569   -0.79208    0.09006    0.58392
  34.13652   -6.49173   -0.16391   -5.99043   -1.64698    1.83802    1.79757
  34.18313   -8.12603   -0.86620   -7.47159   -0.50966    1.42584    0.66789
  34.22931   -6.26680    0.01675   -5.68654   -2.60873    4.21952    3.62949
  34.25201   -7.49671   -1.13659   -6.25245   -3.34150    4.89122    4.71338
  34.27615   -8.38924   -1.18445   -7.65584   -2.24235    4.08212    2.43111
  34.29834   -7.10070   -0.08853   -7.51586   -0.41043    6.07434    1.53042
  34.39243   -7.09113   -0.23450   -7.57807   -0.79208    6.99793    1.60675
  34.43922   -6.38285   -0.33978   -5.94856   -4.18113    5.83771    5.42325
  34.50923   -6.18904    0.29192   -6.73699   -1.50195    6.21936    1.82047
  34.53320   -6.01436    0.11605   -5.73799   -4.38722    6.24226    4.82024
  34.58015   -8.23610   -1.04925   -7.77189   -4.09717    5.65452    3.07992
  34.64939   -6.95235   -0.63769   -6.34577   -4.18113    6.18120    5.30875
  34.67251   -7.18206   -0.86979   -7.78266   -1.02107    2.38760    0.89688
  34.74250   -7.19043   -0.80877   -6.97029   -0.16617   -0.01680    0.61446
  34.76637   -7.02174   -0.08136   -8.20020   -1.27296    0.89916   -0.47706
  34.81190   -6.92842   -0.06221   -6.19980   -0.63179    1.44110    0.66789
  34.92800   -6.80040   -0.18544   -7.64268    1.14670    1.64720    1.04190
  34.97490   -6.82553   -0.37089   -6.69033    0.85665    3.02877    0.34730
  34.99817   -6.96311   -0.01914   -7.11745    1.62758    2.51736    0.01908
  35.04434   -6.96551   -0.31825   -7.28256    0.70399    4.48667    0.91214
  35.06758   -7.02293   -0.41157   -6.95115    0.78795    5.11258    0.32440
  35.09046   -7.01336   -0.17587   -7.26700    0.83375    5.66215    0.17938
  35.16180   -6.88295   -0.20459   -7.23829    0.66582    8.29554    0.11068
  35.18421   -6.79801   -0.16152   -7.28734    0.78032    8.53216    0.20991
  35.20728   -6.72981   -0.23091   -7.31486    0.63529    8.99777    0.36257
  35.23039   -6.65444   -0.29073   -7.21197    0.58949    9.19623    0.26334
  35.32321   -6.51566   -0.20339   -7.37707    0.70399    8.99777    0.01145
  35.34695   -6.47139   -0.22014   -7.37707    0.59713    9.31836   -0.08015
  35.39308   -6.40917   -0.28235   -7.31486    0.78795    9.29546   -0.16411
  35.41683   -6.49771   -0.30867   -7.51705    0.78032    9.47102   -0.19464
  35.46277   -6.37328   -0.25603   -7.49432    0.81085   10.11219   -0.20991
  35.50977   -6.29552   -0.24168   -7.54577    0.69635   10.28775   -0.11831
  35.55779   -6.04427   -0.27039   -7.46321    0.47500   10.06639    0.08778
  35.58078   -6.00957   -0.30508   -7.48595    0.49026    9.55498    0.11831
  35.60369   -6.02991   -0.26919   -7.57807    0.51316    9.19623    0.13358
  35.69655   -5.99881   -0.22732   -7.58644    0.26127    8.41767    0.16411
  35.74253   -5.87677   -0.37448   -7.78744    0.09335    7.57040    0.24807
  35.76677   -5.84926   -0.31346   -7.68814   -0.03641    7.18875    0.34730
  35.78940   -5.83849   -0.25005   -7.71685    0.10098    6.71551    0.41600
  35.81234   -5.90190   -0.22851   -7.88315    0.18494    6.51705    0.38547
  35.83630   -5.95574   -0.21416   -7.81615    0.00938    6.70787    0.34730
  35.88181   -5.85524   -0.31944   -7.80419    0.02465    7.05136    0.20227
  35.95148   -5.62194   -0.22732   -7.76950   -0.07458    6.64681    0.14121
  35.97591   -5.62313   -0.19023   -7.78146    0.07045    6.27279    0.19464
  35.99875   -5.58246   -0.21775   -7.85803    0.19258    5.97511    0.18701
  36.09106   -5.77149   -0.32542   -7.93939    0.00938    5.44080    0.56103
  36.18435   -5.59442   -0.25484   -7.96212   -0.25777    6.70024    0.11068
  36.23051   -5.53580   -0.27517   -8.02074   -0.17381    6.50942    0.08015
  36.25423   -5.48555   -0.26201   -8.01237   -0.19671    6.70787    0.08778
  36.27700   -5.49153   -0.22971   -7.98844   -0.20434    6.63154    0.04198
  36.30022   -5.40299   -0.21057   -8.00519   -0.16617    6.50942    0.11831
  36.32311   -5.44248   -0.26919   -8.09253   -0.16617    6.60101    0.11068
  36.34652   -5.36830   -0.23689   -8.02912   -0.28067    6.54758    0.08015
  36.37064   -5.31685   -0.26919   -8.04587   -0.22724    6.47888    0.14884
  36.41707   -5.34796   -0.25842   -8.07937   -0.14328    6.24989    0.27097
  36.48594   -5.24148   -0.24048   -8.18585    0.06282    5.86824    0.04198
  36.50990   -5.19123   -0.25603   -8.11885    0.07045    5.79191   -0.08778
  36.53241   -5.28216   -0.24287   -8.13679    0.22311    5.57819   -0.19464
  36.58066   -5.24866   -0.30389   -8.23131    0.23837    5.74612   -0.09541
  36.65107   -5.13619   -0.23330   -8.21456    0.30707    5.91404   -0.24807
  36.74333   -5.04886   -0.27039   -8.26720    0.31470    5.70795   -0.19464
  36.76616   -5.07996   -0.27876   -8.29113    0.35287    5.54003   -0.14121
  36.81297   -5.01895   -0.28714   -8.29951    0.33760    5.66979   -0.19464
  36.85930   -4.98904   -0.25842   -8.33300    0.29181    5.69269   -0.14121
  36.90612   -4.99621   -0.32782   -8.37488    0.34524    5.79955   -0.27097
  36.92915   -4.97229   -0.28594   -8.41915    0.27654    5.83008   -0.26334
  36.97548   -4.93998   -0.29192   -8.37129    0.35287    6.11250   -0.22517
  36.99954   -4.91605   -0.29551   -8.36890    0.34524    6.30333   -0.30150
  37.02236   -4.91007   -0.30628   -8.44666    0.30707    6.55521   -0.46180
  37.06824   -4.67677   -0.25962   -8.38325    0.57423    6.83764   -0.49233
  37.11527   -4.63849   -0.40678   -8.53281    1.61995    6.33386   -0.28624
  37.39387   -4.50329   -0.33500   -8.49691   -0.05168    3.01350   -0.33204
  37.44042   -4.50449   -0.36251   -8.62852   -0.04405    2.76925   -0.04198
  37.53376   -4.45185   -0.30867   -8.56989   -0.17381    2.56316    0.05725
  37.55629   -4.44228   -0.36371   -8.65364   -0.12038    2.53262    0.05725
  37.57945   -4.47219   -0.32901   -8.63450   -0.21197    2.56316    0.10305
  37.62778   -4.48535   -0.35294   -8.60220   -0.15854    2.50972    0.15648
  37.79052   -4.34297   -0.25005   -8.61177   -0.17381    2.63949   -0.12594
  37.81452   -4.35374   -0.24766   -8.65005   -0.09748    2.43339    0.11831
  37.88403   -4.31546   -0.36371   -8.65604   -0.21197    2.67002   -0.03435
  37.90707   -4.28555   -0.29791   -8.62134   -0.24250    2.64712   -0.08778
  37.92987   -4.28674   -0.25484   -8.65604   -0.15854    2.54026    0.04961
  37.95371   -4.28913   -0.29073   -8.64048   -0.12038    2.46393    0.17174
  37.97686   -4.33101   -0.32542   -8.60818   -0.08984    2.50209    0.26334
  37.99999   -4.31905   -0.32303   -8.66680   -0.02115    2.41050    0.26334
  38.04703   -4.34776   -0.31705   -8.68834   -0.14328    2.63949    0.04198
  38.06963   -4.34537   -0.30030   -8.69791   -0.14328    2.60895    0.08778
  38.09274   -4.20539   -0.28594   -8.66441   -0.15091    2.71582    0.17174
  38.13969   -4.34058   -0.33021   -8.75055   -0.14328    2.91427    0.17938
  38.16199   -4.26521   -0.32064   -8.80918   -0.14328    2.65475    0.17938
  38.18568   -4.10130   -0.32901   -8.70987   -0.21961    2.67002    0.11831
  38.23262   -4.16590   -0.32303   -8.65723   -0.25014    2.44103   -0.10305
  38.25532   -4.21615   -0.31107   -8.81396   -0.01351    1.90672   -0.16411
  38.30188   -4.06541   -0.30508   -8.79123   -0.02878    1.99068   -0.14884
  38.34790   -4.09651   -0.28594   -8.65364    0.00938    1.47164   -0.11831
  38.44126   -4.24487   -0.38405   -8.82353    0.24601    0.98312   -0.36257
  38.48809   -3.95773   -0.28355   -8.65364   -0.28830    2.01358   -0.46180
  38.60347   -4.25444   -0.46301   -8.95035   -0.05931   -0.08550   -0.02672
  38.72191   -4.25444   -0.37807   -8.81157   -0.11274    0.11296    0.06488
  38.74479   -4.15155   -0.37567   -8.74577   -0.21197    0.37248   -0.01145
  38.83783   -4.18026   -0.32782   -8.76132   -0.16617    0.21219    0.01908
  38.93048   -4.16471   -0.33380   -8.77927   -0.10511    0.08243    0.04961
  38.95439   -4.13240   -0.33500   -8.77448   -0.12801    0.23509    0.04961
  38.97733   -4.07019   -0.32183   -8.75414   -0.13564    0.19693    0.05725
  39.04716   -4.13240   -0.34816   -8.77209   -0.12801    0.12060    0.07251
  39.09329   -4.10249   -0.32183   -8.75893   -0.13564    0.12823    0.09541
  39.11629   -4.12642   -0.32303   -8.75175   -0.13564    0.09006    0.06488
  39.16320   -4.10728   -0.33978   -8.76970   -0.12038    0.15113    0.09541
  39.18606   -4.10130   -0.34337   -8.76970   -0.12038    0.14349    0.06488
  39.25648   -4.12044   -0.33500   -8.78525   -0.18144    0.15876   -0.02672
  39.27899   -4.10369   -0.32901   -8.75294   -0.19671    0.19693    0.00382
  39.32590   -4.14198   -0.32183   -8.75294   -0.19671    0.11296    0.00382
  39.34887   -4.13240   -0.31226   -8.77089   -0.14328    0.18166    0.03435
  39.37260   -4.12523   -0.33619   -8.76012   -0.14328    0.16639    0.06488
  39.39564   -4.10249   -0.33858   -8.76012   -0.13564    0.15113    0.03435
  39.41850   -4.09771   -0.31705   -8.76012   -0.12801    0.14349    0.05725
  39.44273   -4.11685   -0.31825   -8.75893   -0.11274    0.10533    0.11068
  39.46570   -4.13001   -0.33858   -8.76252   -0.10511    0.14349    0.08778
  39.51265   -4.10608   -0.31585   -8.77209   -0.08984    0.11296    0.08778
  39.55839   -4.12044   -0.34576   -8.76970   -0.09748    0.12060    0.05725
  39.62854   -4.11805   -0.33978   -8.77448   -0.12038    0.08243    0.06488
  39.67640   -4.12044   -0.33500   -8.76970   -0.10511    0.09770    0.09541
  39.69928   -4.10728   -0.34337   -8.76611   -0.11274    0.12060    0.07251
  39.74594   -4.11087   -0.33260   -8.76970   -0.09748    0.11296    0.06488
  39.79187   -4.10369   -0.33380   -8.76132   -0.09748    0.12060    0.05725
  39.86242   -4.11565   -0.33978   -8.76730   -0.09748    0.15876    0.07251
  39.90904   -4.11685   -0.33380   -8.76371   -0.11274    0.10533    0.07251
  39.93243   -4.10728   -0.35174   -8.76012   -0.13564    0.12060    0.08778
  39.97827   -4.11087   -0.32423   -8.75773   -0.14328    0.12823    0.09541
  40.07196   -4.12642   -0.33978   -8.76850   -0.09748    0.13586    0.07251
  40.09463   -4.12164   -0.34217   -8.76371   -0.10511    0.12060    0.04961
  40.14168   -4.10967   -0.32901   -8.76970   -0.13564    0.11296    0.08015
  40.21036   -4.11805   -0.33739   -8.76970   -0.08221    0.08243    0.08015
  40.23445   -4.11207   -0.33619   -8.76850   -0.08984    0.12823    0.08015
  40.32765   -4.12164   -0.33978   -8.76252   -0.06695    0.10533    0.05725
  40.44296   -4.11565   -0.33500   -8.76611   -0.12038    0.09006    0.06488
  40.46727   -4.10967   -0.33380   -8.78286   -0.08221    0.09770    0.06488
  40.51314   -4.11924   -0.33858   -8.76730   -0.08221    0.11296    0.08015
  40.53620   -4.11326   -0.33619   -8.75893   -0.10511    0.12060    0.05725
  40.55921   -4.10369   -0.32303   -8.76491   -0.09748    0.12060    0.07251
  40.67720   -4.12762   -0.33141   -8.77687   -0.09748    0.12060    0.07251
  40.70013   -4.11685   -0.32901   -8.76252   -0.11274    0.11296    0.04198
  40.72322   -4.11446   -0.31346   -8.75414   -0.13564    0.10533    0.07251
  40.77036   -4.09292   -0.32782   -8.76970   -0.11274    0.12060    0.06488
  40.79318   -4.11087   -0.32303   -8.77568   -0.12038    0.10533    0.10305
  40.83963   -4.11924   -0.33500   -8.76012   -0.10511    0.09770    0.08015
  40.86300   -4.12044   -0.33619   -8.77328   -0.10511    0.09006    0.08015
  40.88604   -4.11446   -0.33978   -8.76730   -0.13564    0.11296    0.09541
  40.91014   -4.11805   -0.33978   -8.76012   -0.12038    0.14349    0.09541
  40.93303   -4.11685   -0.31944   -8.76371   -0.09748    0.09770    0.09541
  40.95578   -4.12762   -0.34217   -8.75534   -0.09748    0.09770    0.10305
  40.97872   -4.11805   -0.34217   -8.76730   -0.12038    0.12823    0.06488
  41.04852   -4.12523   -0.33858   -8.77807   -0.08221    0.11296    0.10305
  41.07164   -4.10967   -0.33380   -8.76730   -0.09748    0.13586    0.08778
  41.11906   -4.12164   -0.33858   -8.77328   -0.07458    0.10533    0.10305
  41.16596   -4.10489   -0.33500   -8.78166   -0.08984    0.09770    0.09541
  41.25876   -4.10848   -0.34337   -8.75294   -0.15091    0.10533    0.08015
  41.28165   -4.11805   -0.34576   -8.75653   -0.12038    0.09770    0.05725
  41.30514   -4.11924   -0.32662   -8.78166   -0.11274    0.07480    0.10305
  41.32842   -4.12642   -0.32662   -8.77209   -0.08984    0.07480    0.08778
  41.35186   -4.11446   -0.33978   -8.75893   -0.12801    0.13586    0.09541
  41.37471   -4.10848   -0.32542   -8.74457   -0.13564    0.09770    0.08015
  41.42127   -4.11685   -0.33978   -8.78046   -0.10511    0.09770    0.06488
  41.46755   -4.11207   -0.33021   -8.76491   -0.15854    0.10533    0.05725
  41.51489   -4.10608   -0.34337   -8.77568   -0.11274    0.12060    0.07251
  41.60677   -4.10848   -0.32064   -8.75653   -0.12038    0.08243    0.08778
  41.63072   -4.11805   -0.33380   -8.76611   -0.09748    0.09006    0.09541
  41.67661   -4.11087   -0.32423   -8.75893   -0.14328    0.12060    0.08015
  41.70185   -4.12523   -0.33141   -8.76611   -0.12038    0.09770    0.09541
  41.72476   -4.12523   -0.35174   -8.76371   -0.12038    0.12060    0.11068
  41.74784   -4.12164   -0.33858   -8.76371   -0.11274    0.12060    0.10305
  41.79397   -4.11326   -0.34337   -8.76491   -0.05931    0.11296    0.09541
  41.93474   -4.12044   -0.32662   -8.75534   -0.12801    0.15113    0.11831
  41.95693   -4.12523   -0.32303   -8.75893   -0.12038    0.12060    0.08778
  42.00318   -4.12283   -0.33739   -8.77927   -0.12801    0.12060    0.11068
  42.02728   -4.10848   -0.34696   -8.76730   -0.12038    0.12823    0.08015
  42.05035   -4.10489   -0.33260   -8.76491   -0.12801    0.14349    0.04961
  42.14298   -4.11087   -0.32901   -8.76371   -0.08984    0.10533    0.09541
  42.16609   -4.11805   -0.34457   -8.77209   -0.08984    0.09770    0.10305
  42.23569   -4.11446   -0.33619   -8.76252   -0.12038    0.09006    0.11068
  42.25852   -4.12044   -0.34457   -8.77209   -0.12038    0.08243    0.07251
  42.28247   -4.11326   -0.33500   -8.76850   -0.11274    0.08243    0.06488
  42.30628   -4.12523   -0.34217   -8.77568   -0.15091    0.10533    0.08015
  42.35189   -4.11685   -0.32183   -8.75294   -0.11274    0.10533    0.10305
  42.39804   -4.11924   -0.34576   -8.77209   -0.07458    0.13586    0.06488
  42.46763   -4.11805   -0.33978   -8.75773   -0.10511    0.11296    0.06488
  42.58427   -4.10967   -0.32901   -8.77448   -0.12038    0.08243    0.08778
  42.60790   -4.11446   -0.32662   -8.75534   -0.10511    0.09770    0.06488
  42.63049   -4.12283   -0.32901   -8.76611   -0.09748    0.10533    0.04961
  42.67741   -4.11805   -0.33739   -8.77568   -0.10511    0.11296    0.08778
  42.70133   -4.11565   -0.33141   -8.77089   -0.11274    0.12823    0.06488
  42.77221   -4.11805   -0.33858   -8.76850   -0.13564    0.12060    0.09541
  42.79538   -4.11326   -0.32901   -8.76491   -0.13564    0.12060    0.09541
  42.84153   -4.12523   -0.33739   -8.77687   -0.07458    0.09770    0.09541
  42.88723   -4.11087   -0.32782   -8.76611   -0.11274    0.11296    0.08015
  43.00388   -4.10967   -0.33260   -8.78286   -0.15854    0.12060    0.06488
  43.02691   -4.11446   -0.32542   -8.76611   -0.10511    0.13586    0.07251
  43.09748   -4.11207   -0.32064   -8.77209   -0.13564    0.09770    0.04961
  43.21466   -4.12882   -0.34098   -8.77687   -0.11274    0.08243    0.06488
  43.23783   -4.11565   -0.32901   -8.77089   -0.11274    0.12823    0.06488
  43.33102   -4.12164   -0.33260   -8.75893   -0.09748    0.08243    0.07251
  43.42412   -4.12164   -0.33619   -8.77687   -0.12801    0.12060    0.08015
  43.47014   -4.11565   -0.32423   -8.75653   -0.11274    0.10533    0.07251
  43.53982   -4.11565   -0.33739   -8.75294   -0.13564    0.14349    0.08015
  43.56380   -4.11087   -0.32542   -8.75055   -0.10511    0.11296    0.08778
  43.61055   -4.11087   -0.32303   -8.77328   -0.10511    0.15113    0.04198
  43.65654   -4.12523   -0.34935   -8.75055   -0.10511    0.09770    0.06488
  43.72596   -4.11685   -0.33739   -8.77089   -0.11274    0.13586    0.06488
  43.77344   -4.12164   -0.30867   -8.76012   -0.11274    0.11296    0.08015
  43.79592   -4.12403   -0.33500   -8.77089   -0.10511    0.13586    0.11068
  43.81977   -4.11685   -0.33260   -8.76611   -0.12038    0.14349    0.07251
  43.84238   -4.10848   -0.31944   -8.76491   -0.14328    0.14349    0.05725
  43.86561   -4.10848   -0.33260   -8.75414   -0.14328    0.10533    0.08778
  43.88846   -4.11924   -0.34935   -8.77687   -0.09748    0.10533    0.09541
  43.91156   -4.10728   -0.33500   -8.77448   -0.12038    0.09770    0.08778
  43.93490   -4.10848   -0.33260   -8.77089   -0.14328    0.09006    0.09541
  43.95880   -4.11565   -0.34457   -8.77209   -0.13564    0.09006    0.08778
  43.98209   -4.10848   -0.33978   -8.77089   -0.12038    0.09006    0.08015
  44.07435   -4.11326   -0.32183   -8.78286   -0.14328    0.11296    0.08778
  44.09740   -4.11685   -0.33141   -8.78286   -0.14328    0.12823    0.09541
  44.14441   -4.09771   -0.33021   -8.77209   -0.10511    0.08243    0.09541
  44.21430   -4.10489   -0.33260   -8.76970   -0.13564    0.08243    0.05725
  44.23709   -4.10369   -0.31705   -8.76730   -0.12038    0.11296    0.10305
  44.26058   -4.11087   -0.33739   -8.77089   -0.12801    0.09770    0.09541
  44.32959   -4.11924   -0.33141   -8.76850   -0.11274    0.12060    0.08778
  44.35359   -4.12044   -0.32901   -8.77209   -0.12038    0.12060    0.08778
  44.39981   -4.10608   -0.32183   -8.75414   -0.11274    0.12823    0.11068
  44.42492   -4.11446   -0.32782   -8.76132   -0.12801    0.09006    0.09541
  44.44816   -4.12164   -0.32183   -8.76850   -0.13564    0.09770    0.08015
  44.49496   -4.12044   -0.33021   -8.76132   -0.12801    0.11296    0.07251
  44.51791   -4.12044   -0.32183   -8.76252   -0.13564    0.07480    0.06488
  44.54176   -4.12164   -0.33021   -8.75534   -0.09748    0.10533    0.08778
  44.56510   -4.11685   -0.33858   -8.76730   -0.09748    0.14349    0.07251
  44.61180   -4.11087   -0.32901   -8.75414   -0.12801    0.08243    0.08015
  44.63450   -4.10848   -0.34217   -8.77927   -0.12038    0.09770    0.04961
  44.68060   -4.11207   -0.33141   -8.76012   -0.10511    0.12060    0.08778
  44.72756   -4.12283   -0.34098   -8.76850   -0.07458    0.09770    0.04961
  44.82046   -4.12044   -0.33141   -8.77328   -0.07458    0.11296    0.07251
  44.86751   -4.11446   -0.34098   -8.75893   -0.12801    0.09770    0.05725
  44.91343   -4.12403   -0.33141   -8.77089   -0.11274    0.07480    0.07251
  44.93634   -4.12882   -0.34816   -8.78644   -0.08984    0.11296    0.06488
  44.98327   -4.10848   -0.33500   -8.76012   -0.13564    0.11296    0.08778
  45.00706   -4.12403   -0.34098   -8.76850   -0.08221    0.08243    0.06488
  45.05288   -4.12283   -0.33021   -8.77328   -0.09748    0.09006    0.04961
  45.07621   -4.12164   -0.33380   -8.75773   -0.11274    0.10533    0.07251
  45.09942   -4.12403   -0.33500   -8.76611   -0.10511    0.10533    0.04961
  45.12238   -4.11924   -0.32662   -8.77927   -0.09748    0.11296    0.06488
  45.14541   -4.11924   -0.33978   -8.76970   -0.09748    0.13586    0.06488
  45.19346   -4.11326   -0.31346   -8.76491   -0.07458    0.10533    0.08778
  45.21658   -4.12164   -0.33500   -8.77568   -0.11274    0.08243    0.10305
  45.23949   -4.11326   -0.33619   -8.76611   -0.11274    0.13586    0.06488
  45.26333   -4.11685   -0.32423   -8.75893   -0.08984    0.09770    0.04198
  45.28609   -4.11207   -0.32662   -8.76371   -0.09748    0.09006    0.08015
  45.33235   -4.10848   -0.33260   -8.77328   -0.12038    0.12060    0.04961
  45.37860   -4.12403   -0.34337   -8.78525   -0.08221    0.10533    0.07251
  45.40216   -4.12523   -0.33380   -8.78046   -0.08221    0.12060    0.07251
  45.42559   -4.11924   -0.33500   -8.77448   -0.11274    0.09770    0.07251
  45.47199   -4.11565   -0.32901   -8.78166   -0.10511    0.09770    0.07251
  45.61229   -4.12044   -0.34098   -8.76371   -0.10511    0.11296    0.07251
  45.65834   -4.11565   -0.32303   -8.75294   -0.12801    0.09006    0.10305
  45.72729   -4.10489   -0.32901   -8.76252   -0.13564    0.10533    0.08778
  45.75028   -4.11685   -0.33141   -8.75534   -0.12038    0.09006    0.07251
  45.77413   -4.11326   -0.33380   -8.77328   -0.09748    0.09006    0.06488
  45.82150   -4.11207   -0.32782   -8.75893   -0.14328    0.09770    0.06488
  45.84456   -4.10608   -0.33500   -8.76012   -0.14328    0.12060    0.05725
  45.89100   -4.10728   -0.34098   -8.77328   -0.12038    0.09006    0.08778
  45.93655   -4.10848   -0.31944   -8.75055   -0.12038    0.12060    0.05725
  45.98284   -4.12164   -0.33858   -8.76970   -0.08984    0.12823    0.04961
  46.05322   -4.11685   -0.35174   -8.78286   -0.10511    0.11296    0.07251
  46.07638   -4.10728   -0.33978   -8.76132   -0.09748    0.13586    0.04198
  46.12266   -4.11805   -0.33858   -8.76371   -0.10511    0.09006    0.09541
  46.16997   -4.11207   -0.33619   -8.76611   -0.10511    0.11296    0.05725
  46.19445   -4.11805   -0.35414   -8.76012   -0.14328    0.11296    0.05725
  46.28762   -4.10728   -0.34576   -8.75773   -0.09748    0.14349    0.08778
  46.38042   -4.11087   -0.34217   -8.77209   -0.11274    0.14349    0.08778
  46.45021   -4.10130   -0.32423   -8.77807   -0.12801    0.13586    0.08015
  46.47423   -4.10489   -0.32901   -8.76611   -0.12038    0.10533    0.08778
  46.56623   -4.11326   -0.33739   -8.75653   -0.12038    0.12060    0.08778
  46.65972   -4.11446   -0.33978   -8.75534   -0.12801    0.12823    0.09541
  46.70639   -4.11685   -0.33380   -8.76611   -0.11274    0.09006    0.08015
  46.77559   -4.11565   -0.33141   -8.76611   -0.10511    0.11296    0.08015
  46.84582   -4.11565   -0.32901   -8.77807   -0.12038    0.13586    0.07251
  46.86891   -4.11565   -0.34337   -8.76491   -0.12801    0.13586    0.08778
  46.89206   -4.11924   -0.33141   -8.75653   -0.12038    0.12823    0.05725
  46.93881   -4.11087   -0.34217   -8.76850   -0.15091    0.12060    0.08015
  47.03239   -4.11446   -0.33500   -8.76850   -0.11274    0.15876    0.07251
  47.12470   -4.10369   -0.32542   -8.76730   -0.15091    0.14349    0.08778
  47.14771   -4.10010   -0.32303   -8.77687   -0.12038    0.10533    0.09541
  47.17075   -4.11326   -0.33500   -8.75534   -0.10511    0.09006    0.11068
  47.19424   -4.11446   -0.33141   -8.76491   -0.09748    0.05953    0.09541
  47.21753   -4.10848   -0.33619   -8.77448   -0.09748    0.09006    0.07251
  47.28832   -4.10249   -0.31705   -8.75414   -0.10511    0.11296    0.04961
  47.35740   -4.11805   -0.33021   -8.75653   -0.11274    0.12060    0.06488
  47.38028   -4.12403   -0.33141   -8.77089   -0.09748    0.10533    0.08015
  47.40394   -4.12044   -0.34337   -8.78644   -0.11274    0.12823    0.06488
  47.47380   -4.12523   -0.34217   -8.77927   -0.10511    0.09770    0.07251
  47.49772   -4.10608   -0.33500   -8.76970   -0.08221    0.11296    0.04961
  47.52070   -4.11565   -0.32782   -8.76012   -0.14328    0.10533    0.07251
  47.54348   -4.11446   -0.34217   -8.75773   -0.14328    0.09006    0.08015
  47.59021   -4.11446   -0.33619   -8.76970   -0.09748    0.11296    0.06488
  47.61299   -4.12403   -0.34098   -8.78286   -0.13564    0.12823    0.06488
  47.63642   -4.10967   -0.34217   -8.75893   -0.12038    0.11296    0.08015
  47.70614   -4.10848   -0.33500   -8.75773   -0.08221    0.15876    0.09541
  47.72928   -4.10369   -0.32423   -8.76491   -0.10511    0.15113    0.10305
  47.75233   -4.11087   -0.32901   -8.76132   -0.11274    0.09006    0.11068
  47.79872   -4.10728   -0.33500   -8.75414   -0.12038    0.13586    0.06488
  47.82268   -4.11446   -0.33500   -8.76252   -0.11274    0.12060    0.07251
  47.84560   -4.11565   -0.33978   -8.76252   -0.08984    0.12823    0.08015
  47.91502   -4.11924   -0.33380   -8.76252   -0.13564    0.12823    0.08778
  47.96145   -4.10848   -0.33500   -8.77568   -0.09748    0.09770    0.08015
  48.05535   -4.13001   -0.33858   -8.76730   -0.09748    0.11296    0.10305
  48.17078   -4.11207   -0.33260   -8.75773   -0.06695    0.14349    0.04961
  48.19431   -4.11565   -0.33021   -8.76970   -0.11274    0.12060    0.07251
  48.21688   -4.11805   -0.33380   -8.74936   -0.10511    0.12060    0.10305
  48.26384   -4.11685   -0.32901   -8.76611   -0.10511    0.08243    0.06488
  48.28701   -4.12283   -0.33500   -8.77448   -0.13564    0.10533    0.07251
  48.30997   -4.11565   -0.33619   -8.76611   -0.12801    0.11296    0.06488
  48.37945   -4.11207   -0.35055   -8.75534   -0.08221    0.14349    0.07251
  48.40292   -4.10728   -0.32782   -8.76132   -0.12038    0.10533    0.07251
  48.44987   -4.12044   -0.34457   -8.78046   -0.12038    0.12060    0.11831
  48.47389   -4.10608   -0.33500   -8.76970   -0.13564    0.14349    0.08778
  48.49676   -4.10967   -0.32183   -8.75773   -0.12801    0.09770    0.11068
  48.51948   -4.12403   -0.33858   -8.77568   -0.11274    0.10533    0.05725
  48.56546   -4.11087   -0.33380   -8.76850   -0.08984    0.11296    0.07251
  48.61242   -4.11565   -0.33260   -8.75055   -0.11274    0.09006    0.08015
  48.70573   -4.10848   -0.32183   -8.76850   -0.10511    0.10533    0.03435
  48.82168   -4.12283   -0.33978   -8.78644   -0.10511    0.11296    0.07251
  48.86885   -4.10608   -0.32423   -8.75653   -0.13564    0.11296    0.09541
  48.93877   -4.11207   -0.32782   -8.76371   -0.12801    0.11296    0.08015
  48.96183   -4.11326   -0.32782   -8.75055   -0.14328    0.12060    0.08778
  48.98483   -4.11446   -0.32303   -8.75893   -0.12801    0.09770    0.07251
  49.00794   -4.11685   -0.33141   -8.76371   -0.12801    0.09770    0.06488
  49.05465   -4.11805   -0.33739   -8.76611   -0.11274    0.12823    0.08015
  49.07843   -4.10967   -0.31466   -8.77089   -0.13564    0.09770    0.05725
  49.10148   -4.12762   -0.32782   -8.77927   -0.11274    0.08243    0.08778
  49.12460   -4.11326   -0.33141   -8.77448   -0.13564    0.13586    0.09541
=======
%% from source `tikz/main-figure4' on 2019/06/11.
%%
Time aX aY aZ gX gY gZ
  18.80132   -1.00020   -0.20578   -9.52343   -0.12801    0.14349    0.08015
  18.82458   -1.01815   -0.20219   -9.51027   -0.12801    0.09770    0.07251
  18.89440   -1.01456   -0.19143   -9.52463   -0.15854    0.12823    0.09541
  18.91762   -1.00977   -0.20100   -9.53420   -0.14328    0.12060    0.08778
  18.94146   -1.00618   -0.19860   -9.54976   -0.13564    0.12060    0.04961
  18.98812   -1.00259   -0.19741   -9.51985   -0.15854    0.15113    0.08015
  19.01064   -0.98824   -0.18425   -9.51147   -0.14328    0.14349    0.06488
  19.03454   -1.00140   -0.20219   -9.54018   -0.14328    0.09770    0.07251
  19.10387   -1.00499   -0.19621   -9.52224   -0.08984    0.10533    0.08015
  19.12806   -1.00618   -0.20818   -9.53420   -0.10511    0.08243    0.08778
  19.17485   -0.99422   -0.20459   -9.51386   -0.15091    0.13586    0.05725
  19.24412   -1.00499   -0.19262   -9.54736   -0.14328    0.09006    0.07251
  19.31437   -0.98943   -0.19502   -9.52822   -0.11274    0.10533    0.08015
  19.36053   -1.02054   -0.20459   -9.54377   -0.15854    0.15876    0.08778
  19.38415   -1.00020   -0.18784   -9.53061   -0.15091    0.13586    0.06488
  19.50008   -1.00020   -0.20459   -9.51027   -0.12801    0.12823    0.08778
  19.56971   -1.01336   -0.19860   -9.54018   -0.14328    0.14349    0.08778
  19.59374   -0.99900   -0.19741   -9.53061   -0.12801    0.15876    0.06488
  19.66231   -1.01097   -0.21176   -9.53779   -0.16617    0.13586    0.10305
  19.68575   -0.98943   -0.20818   -9.51147   -0.16617    0.14349    0.06488
  19.70884   -0.99302   -0.19621   -9.52224   -0.14328    0.12060    0.06488
  19.75538   -1.01097   -0.20818   -9.53779   -0.14328    0.15113    0.02672
  19.89451   -1.00140   -0.19621   -9.51027   -0.12801    0.12823    0.05725
  19.94154   -1.01216   -0.18903   -9.53659   -0.14328    0.09770    0.08778
  20.01088   -1.00259   -0.19023   -9.53779   -0.12801    0.12060    0.09541
  20.03470   -1.01695   -0.20339   -9.55574   -0.15091    0.11296    0.08015
  20.08046   -0.99900   -0.19741   -9.53061   -0.13564    0.10533    0.05725
  20.12727   -1.01216   -0.21176   -9.53061   -0.13564    0.07480    0.07251
  20.19735   -0.99182   -0.20100   -9.51267   -0.12038    0.12823    0.04198
  20.24316   -1.00857   -0.20219   -9.54617   -0.15091    0.09006    0.08778
  20.29018   -0.99781   -0.20698   -9.51626   -0.15091    0.14349    0.06488
  20.38323   -0.99900   -0.19262   -9.50908   -0.15091    0.11296    0.08015
  20.42900   -1.00140   -0.20459   -9.52463   -0.12801    0.09770    0.07251
  20.52196   -1.00738   -0.19502   -9.52583   -0.12038    0.12060    0.09541
  20.56924   -1.01575   -0.20818   -9.54018   -0.15091    0.15876    0.05725
  20.59197   -1.00379   -0.20219   -9.51865   -0.12801    0.14349    0.06488
  20.61568   -1.01456   -0.20100   -9.55215   -0.12038    0.11296    0.08778
  20.63876   -1.01575   -0.20578   -9.54617   -0.12801    0.12060    0.09541
  20.73130   -1.01695   -0.21057   -9.54258   -0.11274    0.12060    0.04961
  20.77987   -1.01336   -0.20459   -9.51865   -0.13564    0.14349    0.08015
  20.80259   -1.01336   -0.20937   -9.54617   -0.12801    0.12823    0.04961
  20.82708   -1.02054   -0.20459   -9.55215   -0.12038    0.14349    0.07251
  20.84924   -1.01815   -0.20219   -9.53899   -0.15091    0.14349    0.08778
  20.87220   -1.00259   -0.20698   -9.51745   -0.15091    0.15113    0.08015
  20.94147   -1.01097   -0.20698   -9.53061   -0.14328    0.13586    0.07251
  20.96538   -1.00499   -0.19621   -9.50429   -0.13564    0.16639    0.08015
  21.08106   -1.00857   -0.20219   -9.53061   -0.14328    0.07480    0.11831
  21.12795   -0.99781   -0.19382   -9.54736   -0.13564    0.11296    0.11831
  21.15044   -1.00140   -0.19860   -9.52343   -0.15091    0.14349    0.10305
  21.17441   -0.99661   -0.20818   -9.52702   -0.12801    0.13586    0.08015
  21.19747   -1.00020   -0.20219   -9.53779   -0.08984    0.12823    0.07251
  21.22141   -1.00857   -0.20698   -9.54617   -0.10511    0.12823    0.08015
  21.26773   -1.00020   -0.20219   -9.53540   -0.15854    0.17403    0.06488
  21.33675   -1.00977   -0.20459   -9.54018   -0.18907    0.16639    0.07251
  21.43082   -1.01216   -0.20339   -9.55095   -0.12038    0.12823    0.07251
  21.45362   -1.00738   -0.19502   -9.52463   -0.11274    0.14349    0.08015
  21.47683   -1.00499   -0.19860   -9.52822   -0.10511    0.11296    0.09541
  21.56906   -1.00259   -0.21176   -9.51386   -0.13564    0.15876    0.05725
  21.59297   -1.00738   -0.21176   -9.53540   -0.12801    0.10533    0.07251
  21.61672   -1.01934   -0.22253   -9.54856   -0.16617    0.12823    0.08015
  21.66283   -0.99661   -0.19860   -9.51745   -0.18907    0.13586    0.05725
  21.68586   -1.00857   -0.20818   -9.52702   -0.14328    0.10533    0.08778
  21.73222   -1.00259   -0.19621   -9.53659   -0.11274    0.13586    0.07251
  21.77911   -1.00618   -0.20100   -9.53061   -0.14328    0.10533    0.09541
  21.87280   -0.98584   -0.19621   -9.50070   -0.12801    0.14349    0.06488
  21.89590   -1.00738   -0.19980   -9.51865   -0.12038    0.12060    0.08778
  21.94279   -1.00379   -0.20339   -9.53300   -0.16617    0.18166    0.07251
  21.96541   -1.00020   -0.19741   -9.52343   -0.16617    0.12823    0.11068
  22.01277   -1.01216   -0.20818   -9.53899   -0.14328    0.13586    0.06488
  22.03559   -1.00020   -0.19621   -9.52583   -0.17381    0.15113    0.08778
  22.08269   -1.01216   -0.21057   -9.54138   -0.15854    0.14349    0.08778
  22.10508   -1.00499   -0.19502   -9.53300   -0.15854    0.14349    0.06488
  22.15231   -1.01216   -0.21057   -9.53300   -0.16617    0.15876    0.06488
  22.17518   -1.00738   -0.20100   -9.50190   -0.15091    0.13586    0.04961
  22.19769   -1.01216   -0.20578   -9.53300   -0.12038    0.09006    0.05725
  22.22132   -1.02293   -0.21416   -9.54617   -0.13564    0.13586    0.07251
  22.29129   -1.02532   -0.21296   -9.52702   -0.10511    0.09770    0.08015
  22.33728   -0.99063   -0.20818   -9.51985   -0.14328    0.15876    0.10305
  22.40693   -1.00020   -0.19860   -9.53061   -0.12801    0.12060    0.08778
  22.47705   -1.00379   -0.20219   -9.53420   -0.11274    0.10533    0.08015
  22.52350   -1.01575   -0.21655   -9.54856   -0.11274    0.14349    0.09541
  22.54685   -0.99781   -0.19980   -9.51506   -0.13564    0.18166    0.09541
  22.61697   -1.00857   -0.20698   -9.55574   -0.12038    0.15876    0.08778
  22.64066   -1.00020   -0.19262   -9.52224   -0.17381    0.15113    0.08015
  22.66434   -1.01336   -0.19382   -9.51267   -0.15854    0.12823    0.08778
  22.68691   -0.98106   -0.20339   -9.54018   -0.10511    0.14349    0.08778
  22.71071   -1.00499   -0.20698   -9.53779   -0.09748    0.11296    0.09541
  22.77967   -0.55753   -0.28355   -9.51147   -0.28067    0.56331   -0.39310
  22.80332   -0.53839   -0.26680   -9.50908   -0.12801    0.24272   -0.85108
  22.87302   -0.86740   -0.10528   -9.57368   -0.21197    0.39538    0.36257
  22.94286   -0.92243   -0.16989   -9.54976   -0.30357    0.40302    0.33967
  23.01235   -1.07318   -0.32782   -9.81297   -0.13564    0.17403    0.72132
  23.05965   -0.89372   -0.22253   -9.53779   -0.47149    0.60147    0.29387
  23.08255   -0.88295   -0.13280   -9.43131   -0.37227    0.45645    0.32440
  23.12814   -0.95713   -0.18425   -9.54856   -0.30357    0.09770    0.43890
  23.15140   -0.96909   -0.23569   -9.53300   -0.31883    0.06716    0.33967
  23.19778   -0.98106   -0.21176   -9.47199   -0.24250   -0.13893    0.04198
  23.26834   -0.98225   -0.19980   -9.52343   -0.34937   -0.22289   -0.08778
  23.31457   -0.96311   -0.21655   -9.50429   -0.29594   -0.25342   -0.17174
  23.33720   -0.95234   -0.16869   -9.50190   -0.26540   -0.28395   -0.17174
  23.36149   -0.94756   -0.16152   -9.56770   -0.19671   -0.33738   -0.08778
  23.38395   -0.97268   -0.12682   -9.51985   -0.18144   -0.26105    0.03435
  23.40754   -0.97149   -0.13759   -9.49233   -0.09748   -0.29159    0.13358
  23.45459   -1.00857   -0.21894   -9.58445   -0.06695   -0.27632   -0.00382
  23.47741   -0.96072   -0.17946   -9.52702   -0.09748   -0.15419   -0.07251
  23.50010   -1.00977   -0.23210   -9.48395   -0.12038   -0.26105   -0.12594
  23.66313   -0.98225   -0.23569   -9.49831   -0.10511   -0.13129   -0.13358
  23.75624   -1.05882   -0.14716   -9.54976   -0.09748   -0.00153   -0.01908
  23.80254   -1.01934   -0.18066   -9.51506   -0.16617   -0.05496    0.17174
  23.84882   -1.06720   -0.22253   -9.54377   -0.15091   -0.02443   -0.11831
  23.91926   -1.06959   -0.16750   -9.52463   -0.29594    0.08243   -0.17174
  23.94238   -1.11745   -0.18185   -9.53300   -0.31883    0.07480   -0.09541
  23.96539   -1.10907   -0.18305   -9.56770   -0.31883    0.14349   -0.06488
  24.10550   -1.07797   -0.17109   -9.54258   -0.50966   -0.04733   -0.33204
  24.17517   -0.99302   -0.16750   -9.47438   -0.35700    0.02900    0.03435
  24.22135   -1.02413   -0.24048   -9.72922    0.49026   -0.08550   -0.04198
  24.24511   -0.93081   -0.17348   -9.34038   -0.80735   -0.07786   -0.11068
  24.31474   -1.06002   -0.11844   -9.52343   -0.50966   -0.16946   -0.44653
  24.38391   -1.09113   -0.17827   -9.57129   -0.36463   -0.33738   -0.12594
  24.43073   -0.96909   -0.12562   -9.49711   -0.28830   -0.28395   -0.17938
  24.45444   -0.99182   -0.12802   -9.51745   -0.29594   -0.53584   -0.16411
  24.52450   -1.09352   -0.21894   -9.51626   -0.21961   -0.76483   -0.30150
  24.61706   -0.98704   -0.13878   -9.50309   -0.19671   -0.58164   -0.33204
  24.63951   -1.03131   -0.13161   -9.49711   -0.28830   -0.65034   -0.17938
  24.68739   -1.08993   -0.19143   -9.48395   -0.24250   -0.60454   -0.05725
  24.71024   -1.09950   -0.18784   -9.49951   -0.33410   -0.74193   -0.09541
  24.77923   -1.12463   -0.18185   -9.50549   -0.34937   -0.66560   -0.18701
  24.80324   -1.10788   -0.17228   -9.51267   -0.35700   -0.68087   -0.20991
  24.82584   -1.09711   -0.16271   -9.50429   -0.40280   -0.77247   -0.20227
  24.84888   -1.04925   -0.15793   -9.49592   -0.38753   -0.68850   -0.20227
  24.89579   -1.07797   -0.16750   -9.53300   -0.40280   -0.82590   -0.33204
  24.94288   -1.07797   -0.18185   -9.46720   -0.43333   -0.87169   -0.69842
  25.05880   -1.10429   -0.17228   -9.52702   -0.63179   -1.47470   -0.44653
  25.10513   -1.22154   -0.22014   -9.50908   -0.70812   -1.71896   -0.94268
  25.12861   -1.23829   -0.17109   -9.52822   -0.60126   -1.67316   -1.27853
  25.15205   -1.31486   -0.02154   -9.49113   -0.56309   -1.73422   -1.16403
  25.17465   -1.39980    0.01316   -9.59163   -0.60126   -1.59683   -0.55339
  25.19835   -1.40100   -0.04786   -9.60838   -0.58599   -1.27624    0.01908
  25.24556   -1.13181   -0.17109   -9.44447   -0.47913   -1.16175    0.01145
  25.26728   -0.92602   -0.10528   -9.37986   -0.51729   -1.29151    0.04198
  25.31436   -1.19163   -0.14955   -9.54377   -0.76155   -1.94031    0.05725
  25.36112   -1.51226   -0.18425   -9.68734   -0.36463   -1.56630   -0.51523
  25.43100   -1.17488   -0.13998   -9.41456   -0.41806   -1.57393   -0.40837
  25.45365   -1.22154   -0.18784   -9.46481   -0.44096   -1.73422   -0.53049
  25.47746   -1.20000   -0.21176   -9.47558   -0.40280   -1.71132   -0.72132
  25.50084   -1.21555   -0.16152   -9.49233   -0.41043   -1.83345   -0.94268
  25.52385   -1.25862   -0.09811   -9.42772   -0.48676   -2.03954   -1.04190
  25.54787   -1.34118   -0.01196   -9.46481   -0.54782   -2.09297   -0.82055
  25.59431   -1.48235   -0.11725   -9.59043   -0.48676   -1.71132   -0.14884
  25.64053   -1.25264   -0.13400   -9.44327   -0.44860   -1.58920   -0.00382
  25.66348   -1.25504   -0.11246   -9.46242   -0.49439   -1.77239    0.01145
  25.68731   -1.22871   -0.09212   -9.42413   -0.54782   -1.90215    0.01145
  25.73472   -1.31845   -0.23928   -9.46960   -0.47913   -2.16930   -0.55339
  25.78057   -1.15334   -0.19741   -9.33440   -0.41043   -2.46699   -1.48462
  25.94278   -1.86879   -0.11605   -9.69811   -0.43333   -2.10061    0.47706
  25.96641   -1.54696   -0.16152   -9.52343   -0.37227   -1.53577    0.35493
  26.03583   -1.35314   -0.06700   -9.32483   -0.81498   -3.39058    0.20991
  26.08235   -1.70369   -0.12203   -9.53061   -0.89131   -3.46691    0.43126
  26.10640   -1.66182   -0.06580   -9.58206   -0.70048   -3.10053    0.62972
  26.19835   -1.46680   -0.05384   -9.38226   -0.73865   -3.62721    0.48470
  26.33854   -1.68933   -0.03111   -9.41097   -1.56301   -5.32173    0.61446
  26.40855   -1.80060   -0.01795   -9.43490   -1.65461   -5.45149    0.78238
  26.43136   -1.81496   -0.01914   -9.43370   -1.60118   -5.39806    0.84345
  26.45403   -1.84128   -0.02034   -9.40140   -1.54775   -5.30647    0.89688
  26.47794   -1.82094    0.03709   -9.40858   -1.64698   -5.24540    1.01137
  26.50184   -1.81855    0.04427   -9.37747   -1.70804   -5.45149    1.31669
  26.52548   -1.82094    0.01555   -9.36192   -1.89123   -5.68812    1.56858
  26.54797   -1.86042   -0.03589   -9.28176   -2.24998   -6.42852    1.66781
  26.57165   -1.91306   -0.11246   -9.38465   -2.50951   -6.84833    1.59148
  26.61822   -2.02193   -0.09452   -9.35354   -2.66980   -7.68796    1.10297
  26.68681   -2.06620    0.13759   -9.37986   -2.47134   -7.76429    0.85871
  26.71029   -2.14756    0.16271   -9.35474   -2.40264   -7.74903    0.88924
  26.78061   -2.10568    0.10050   -9.21955   -2.41791   -8.12304    1.06480
  26.80334   -2.08534    0.07896   -9.15374   -2.70796   -8.69552    1.14877
  26.87291   -2.14158    0.04905   -9.07478   -4.27273  -11.32891    1.87390
  26.91960   -2.27079    0.05264   -9.07119   -5.32608  -13.43561    2.01893
  26.94405   -2.41077    0.14118   -9.15015   -5.92146  -14.33631    1.96550
  26.96712   -2.36531    0.22014   -8.70628   -6.64659  -15.45072    2.41584
  26.98974   -2.46221    0.15075   -8.68355   -7.67705  -17.00023    2.36241
  27.08226   -3.22792    0.19262   -9.64068   -5.74590  -18.16044    1.65254
  27.12997   -3.28893    0.58265   -9.16930   -1.37219  -12.25250   -2.53797
  27.15277   -2.93719    0.65683   -8.57468    3.52820   -9.17640   -5.78963
  27.17643   -2.44427    0.78126   -7.63430    9.77962   -6.93993   -9.66719
  27.22200   -4.87179    1.81137  -11.00938    9.38271   -3.15396  -13.71268
  27.29244   -2.65005   -1.36630   -9.27099   -1.85307   -5.77208    4.46912
  27.31515   -2.14636   -1.69531   -9.26979    0.04755   -5.03168    3.82795
  27.38564   -2.81516    0.44506   -7.45125   -7.23433  -16.81703    2.96542
  27.40870   -2.36650    0.38644   -7.46800  -11.05083  -22.67155    2.00366
  27.43249   -2.19183    0.65922   -8.32583  -11.88283  -27.22081    0.19464
  27.50183   -3.48395    0.58385   -7.94417  -15.72986  -34.41873    7.76658
  27.61846   -5.78704    1.00259   -9.21356    4.86397    3.28066   -1.43882
  27.64114   -4.39562    1.19282   -8.42752    4.13884    7.96732   -3.09518
  27.68735   -2.70748    0.71067   -8.88455    4.86397    3.60888   -2.09526
  27.71073   -2.86660    0.22493   -8.07817    5.08533    0.69307    0.26334
  27.87395   -4.15274    0.70110   -8.71945    3.94038    1.05182   -0.43126
  27.92022   -3.91107    0.02273   -8.70509    3.52820    0.20456   -1.23273
  27.94384   -3.83091   -0.03230   -8.92523    3.88695   -0.22289   -0.79765
  27.98973   -3.96850    0.13519   -8.75294    4.50522   -0.44425    1.04190
  28.05989   -4.05105    0.54676   -8.64886    4.40599   -0.78773    0.98847
  28.08282   -4.10369    0.42712   -8.76970    4.91740   -0.37555    0.62209
  28.10554   -4.12762    0.28834   -8.73261    5.18456   -0.09313    0.15648
  28.17638   -4.02832   -0.04905   -8.71107    5.42118   -0.23816   -0.76712
  28.19956   -4.05225    0.03230   -8.81875    5.52041   -0.37555   -0.70605
  28.24614   -3.95893    0.05743   -8.76491    5.63491   -0.43661   -0.63736
  28.29259   -3.38824   -0.02393   -8.32583    7.21494   -0.44425   -2.64483
  28.33843   -2.94915    0.59462  -10.01636   25.32041   -2.52042  -10.24730
  28.45604   -5.75474   -1.41775  -10.01396   -0.47149   -1.03199   -0.98084
  28.47868   -4.00798   -0.63769   -8.29472   -0.52493    0.21219   -1.76704
  28.57239   -3.76391   -0.24646   -8.60339   -0.66232   -0.50531   -0.17174
  28.59634   -3.96132   -0.57667   -8.96710   -0.70048   -0.77247    0.37783
  28.61897   -3.95294   -0.64726   -8.68475   -0.28830   -0.97092    0.69079
  28.64247   -4.07737   -0.38644   -8.90728   -0.50203   -1.45944    0.62972
  28.66526   -4.00917   -0.04546   -8.82712   -0.71575   -1.13122    0.40837
  28.68835   -4.10848    0.00718   -8.72902   -1.01344   -1.19991   -0.04961
  28.78209   -4.46261   -0.26321   -8.74218   -0.44096   -0.78010    0.62209
  28.82766   -4.06301   -0.23330   -8.81994   -0.31883   -0.37555    0.59919
  28.85127   -3.97567   -0.12562   -8.76730   -0.58599   -0.62744   -0.19464
  28.87468   -4.02114   -0.10289   -8.75773   -0.88368   -0.86406   -0.63736
  28.92082   -4.26880   -0.21057   -8.69791   -0.60126   -1.07015    0.09541
  28.94358   -4.34417   -0.28594   -8.72662   -0.39516   -1.08542    0.57629
  29.01352   -4.21376   -0.12562   -8.70628   -0.65469   -0.90986   -0.34730
  29.03773   -4.29153   -0.12084   -8.74577   -0.73102   -0.91749   -0.56866
  29.06081   -4.29990   -0.18425   -8.69671   -0.68522   -0.77247   -0.56103
  29.10635   -4.26162   -0.30628   -8.68954   -0.50203   -0.79536   -0.26334
  29.22397   -4.04267   -0.00837   -8.76850   -0.76918   -1.15412   -1.04190
  29.24680   -4.18744   -0.10887   -8.67637   -0.67759   -1.36784   -0.64499
  29.27074   -4.23410   -0.20578   -8.70628   -0.62415   -1.32967   -0.46180
  29.31704   -4.22453   -0.29192   -8.67518   -0.57836   -1.20755   -0.75948
  29.36346   -4.17906   -0.22851   -8.69312   -0.76918   -1.35257   -1.49988
  29.43394   -4.16590   -0.14118   -8.71586   -0.88368   -1.78765   -2.15632
  29.47996   -4.09891   -0.16271   -8.71346   -0.69285   -2.19984   -1.59148
  29.50325   -4.15394   -0.24287   -8.60818   -0.73865   -2.40593   -1.40066
  29.54943   -4.30110   -0.10648   -8.42513   -0.80735   -2.96314   -1.82810
  29.59727   -4.97468   -0.13639   -8.75893   -1.72331   -4.01649   -1.21746
  29.62116   -4.89213   -0.09691   -8.77927   -1.15083   -2.73415   -0.85871
  29.64389   -4.78684   -0.07657   -8.58425   -0.44860   -1.91742   -0.43126
  29.69047   -4.49133   -0.10050   -8.73141   -0.01351   -0.71140   -0.27860
  29.71355   -4.05583   -0.06461   -8.64288   -0.03641   -0.89459   -0.15648
  29.75952   -4.23769   -0.37687   -8.48734   -0.70812   -2.37540   -0.08778
  29.78335   -4.29153   -0.42473   -8.56511   -1.18136   -2.85627   -0.49233
  29.82974   -4.40878   -0.05862   -8.55195   -1.21953   -3.00893   -0.52286
  29.85324   -4.54277   -0.02154   -8.55075   -1.32639   -3.13870   -0.08015
  29.87623   -4.49851   -0.08495   -8.57827   -1.12030   -2.81811    0.03435
  29.96923   -4.50210   -0.12203   -8.58066   -0.38753   -1.93268   -0.30914
  30.01571   -4.42074   -0.21296   -8.54716   -0.51729   -2.23800   -0.25571
  30.06235   -4.48774   -0.13519   -8.55554   -0.86078   -2.86391   -0.16411
  30.08513   -4.53679   -0.10768   -8.57229   -0.83788   -2.91734   -0.08015
  30.15474   -4.53799   -0.13759   -8.54836   -0.56309   -2.45936   -0.07251
  30.17775   -4.59422   -0.11964   -8.52682   -0.50966   -2.45173   -0.02672
  30.22570   -4.57986   -0.15673   -8.53998   -0.50966   -2.55859   -0.17174
  30.29498   -4.55952   -0.14477   -8.51964   -0.66995   -2.94787    0.00382
  30.34098   -4.61217   -0.16271   -8.48495   -0.73102   -3.10053    0.02672
  30.38758   -4.67318   -0.08495   -8.44068   -0.77681   -3.25319   -0.11068
  30.41192   -4.66122   -0.07777   -8.48256   -0.70812   -3.17686    0.00382
  30.43441   -4.71625   -0.15793   -8.44307   -0.73865   -3.31425    0.04198
  30.45773   -4.72582   -0.17348   -8.49093   -0.73102   -3.36005   -0.05725
  30.48065   -4.75215   -0.13639   -8.48615   -0.67759   -3.39058   -0.13358
  30.52686   -4.66959   -0.08614   -8.45145   -0.64705   -3.50508    0.11831
  30.55088   -4.72941   -0.12562   -8.44786   -0.64705   -3.84856    0.20227
  30.57357   -4.71386   -0.13280   -8.45265   -0.68522   -3.92489    0.21754
  30.59729   -4.77488   -0.16869   -8.43948   -0.83788   -4.23785    0.11831
  30.64392   -4.83709   -0.09452   -8.37368   -0.89131   -4.49737   -0.03435
  30.69074   -4.90888   -0.10050   -8.39402   -0.85314   -4.38287   -0.04198
  30.71338   -4.93041   -0.12084   -8.41077   -0.85314   -4.21495   -0.04198
  30.73737   -4.94716   -0.11605   -8.40958   -0.76155   -4.14625   -0.06488
  30.76034   -4.89811   -0.10169   -8.37966   -0.64705   -3.90963   -0.16411
  30.78326   -4.93161   -0.07059   -8.33300   -0.65469   -4.00122   -0.11831
  30.80819   -4.87418   -0.08734   -8.36650   -0.58599   -3.83330   -0.07251
  30.83060   -4.97109   -0.09930   -8.31147   -0.71575   -4.17678    0.04198
  30.85431   -4.90170   -0.13041   -8.37129   -0.76918   -4.07755   -0.00382
  30.92319   -5.01416   -0.05743   -8.32463   -0.65469   -4.36761   -0.12594
  30.97037   -4.96271   -0.08375   -8.26840   -0.63942   -4.42867   -0.08778
  31.01700   -5.02373   -0.12084   -8.26601   -0.67759   -4.65766   -0.17174
  31.06311   -5.07877   -0.07777   -8.22772   -0.66995   -4.88665   -0.21754
  31.08635   -5.13619   -0.08016   -8.29831   -0.63942   -4.87902   -0.26334
  31.10909   -5.15055   -0.06820   -8.22533   -0.70048   -4.94772   -0.19464
  31.17904   -5.17209   -0.06461   -8.22772   -0.66232   -4.91718   -0.16411
  31.24856   -5.23789   -0.09452   -8.14278   -0.77681   -5.17671   -0.20991
  31.29531   -5.26541   -0.10289   -8.09133   -0.68522   -5.38280   -0.42363
  31.36596   -5.31087   -0.01675   -8.09970   -0.60889   -5.75681   -0.24044
  31.38877   -5.31446   -0.06700   -8.05903   -0.64705   -6.01634   -0.14121
  31.45935   -5.39821   -0.06700   -8.03151   -0.72338   -6.57355   -0.27860
  31.52848   -5.56212   -0.03230   -8.00519   -0.76155   -6.71857   -0.22517
  31.69146   -5.67458   -0.05982   -7.88196   -0.76155   -6.77964   -0.10305
  31.71496   -5.70329   -0.05503   -7.92264   -0.71575   -6.63461   -0.17174
  31.87710   -5.78943   -0.06580   -7.75275   -0.68522   -7.45134   -0.21754
  31.92377   -5.85045   -0.02991   -7.69891   -0.76918   -7.64217   -0.20227
  32.04037   -5.91984   -0.03948   -7.68814   -1.08213   -8.08488    0.09541
  32.06401   -5.98206   -0.00239   -7.56491   -1.25769   -8.50469    0.26334
  32.08695   -5.95215   -0.00957   -7.62473   -1.35692   -8.75658    0.43890
  32.22613   -6.21177    0.00837   -7.40698   -2.11259  -11.12281    1.01901
  32.29625   -6.41755   -0.03230   -7.43689   -1.93703  -11.80215    0.35493
  32.31924   -6.48455    0.03350   -7.44048   -1.86070  -11.68002   -0.07251
  32.34293   -6.52403    0.06102   -7.38425   -1.62408  -11.22204   -0.55339
  32.43552   -6.74537    0.13639   -7.20479   -0.94474   -9.59621   -0.69842
  32.45919   -6.73939    0.07537   -7.27298   -0.93711   -9.23746   -0.33204
  32.48271   -6.73460    0.02871   -7.23231   -0.91421   -9.09244   -0.20991
  32.52826   -6.66640    0.05862   -7.06361   -0.92184   -8.81001   -0.31677
  32.55186   -6.66640    0.07178   -7.07318   -0.96764   -8.84818   -0.38547
  32.57506   -6.69272    0.07178   -7.05763   -0.97527   -9.12297   -0.35493
  32.59749   -6.69512    0.03111   -7.00738   -1.00580   -9.36722   -0.34730
  32.62093   -6.73101    0.00598   -7.01576   -1.05160   -9.63438   -0.38547
  32.71491   -7.60678    0.06580   -7.49911    0.90245   -5.00115   -1.84337
  32.78373   -7.31486    0.48814   -7.22872    4.80291    2.83794   -3.86611
  32.80748   -7.03729    0.40439   -6.95354    4.37546    3.28829   -2.14106
  32.83014   -6.74058   -0.03350   -7.04686    4.32966    2.24257   -0.76712
  32.90016   -6.97029   -0.00957   -7.09233    4.39073   -0.24579   -0.46180
  32.97037   -6.91406   -0.09093   -6.97867    4.94030    1.86092   -1.65254
  33.01660   -6.82433   -0.23928   -7.15454    3.70376    0.07480   -0.03435
  33.04000   -6.55992   -0.39123   -6.95235    3.97091   -1.06252    0.60682
  33.06387   -6.71546   -0.36012   -6.78246    3.76482   -0.95566    0.53049
  33.11196   -6.98824   -0.22971   -7.46321    2.31455   -0.82590   -0.22517
  33.17922   -6.99901   -0.19860   -7.09592    3.43660   -1.51287    0.66789
  33.20310   -7.02892   -0.30867   -7.03011    2.97862   -1.19991    0.62209
  33.22555   -6.94397   -0.41994   -6.98465    2.57407   -0.62744    0.36257
  33.24962   -6.87578   -0.37208   -6.90210    2.59697   -0.86406    0.07251
  33.29552   -7.01217   -0.31107   -7.19163    1.55888   -0.81063   -0.00382
  33.36598   -7.02054   -0.27757   -6.99661    0.81848   -0.04733   -0.06488
  33.38869   -6.83271   -0.26680   -6.90329    0.94061   -0.07786    0.05725
  33.41134   -6.95833   -0.27039   -7.01097    1.29936   -0.37555    0.06488
  33.48183   -6.85424   -0.36132   -7.01576    1.04747   -0.68850   -1.08007
  33.50564   -6.89013   -0.40439   -6.95235    1.12380   -0.87933   -1.53805
  33.55216   -6.90808   -0.39123   -6.87458    1.78024   -1.76476   -1.63728
  33.59800   -6.95952   -0.19741   -6.84228    2.69620   -2.40593   -1.16403
  33.71548   -7.18804   -0.73579   -6.90210   -0.90658    1.76169   -1.09534
  33.78530   -6.94756   -0.33978   -6.99183   -1.94466    3.95236   -0.35493
  33.80806   -6.92483   -0.27398   -7.04686   -1.89887    3.40279   -0.04961
  33.83190   -6.88535   -0.29791   -6.90449   -1.83017    3.19669    0.10305
  33.85479   -6.84587   -0.26680   -6.77169   -1.41799    2.69292   -0.01908
  33.90170   -6.80519   -0.28355   -7.00738   -0.76918    2.09754   -0.33204
  33.92454   -6.78485   -0.32183   -6.88176   -0.63179    1.54033   -0.36257
  33.94838   -6.75135   -0.40080   -6.86381   -0.08984    0.89153   -0.58392
  33.97123   -6.73101   -0.32064   -6.88056    0.42920    0.43355   -0.82055
  34.01737   -6.99302   -0.28235   -7.20718    0.70399   -0.54348   -0.20991
  34.04045   -6.99901   -0.50728   -6.89253    0.60476   -0.37555   -0.16411
  34.08772   -7.12702   -0.54556   -6.96790   -0.86078    1.80749   -0.61446
  34.11048   -7.03131   -0.45823   -6.94636   -1.25006    2.70055   -0.64499
  34.13418   -6.90928   -0.36849   -6.93919   -1.48668    3.18906   -0.55339
  34.36668   -6.84706   -0.36251   -6.93440   -0.92184    2.11281   -0.50759
  34.38954   -6.84347   -0.27637   -6.94397   -0.71575    1.76932   -0.42363
  34.43645   -6.78844   -0.35174   -7.08395   -0.34173    1.47164   -0.12594
  34.66927   -6.77647   -0.27757   -6.98824   -0.10511    1.22738   -0.30914
  34.69358   -6.78485   -0.29192   -7.03729    0.17731    0.97549   -0.03435
  34.76258   -6.87578   -0.40080   -6.99781   -0.29594    1.36477   -0.20991
  34.78663   -6.83271   -0.35294   -7.01097   -0.16617    1.39531   -0.17938
  34.87914   -6.68076   -0.41276   -7.10788   -0.11274    1.42584    0.00382
  34.90274   -6.68914   -0.36491   -7.02413   -0.11274    1.31134   -0.14884
  34.99480   -6.73699   -0.38524   -7.11506    0.01702    1.38004   -0.01908
  35.01854   -6.75374   -0.41276   -7.11625    0.09335    1.43347   -0.01908
  35.08767   -6.69392   -0.36969   -7.01336   -0.06695    1.57087    0.12594
  35.13461   -6.68794   -0.40199   -7.14975    0.11625    1.34188   -0.05725
  35.15856   -6.78365   -0.34337   -7.11745   -0.01351    1.21211   -0.08778
  35.25150   -6.67597   -0.41157   -7.20718   -0.00588    1.39531   -0.01145
  35.29739   -6.65923   -0.41276   -7.11625   -0.14328    1.49454   -0.03435
  35.34438   -6.67717   -0.37567   -7.15215   -0.05168    1.25791   -0.25571
  35.41395   -6.60539   -0.43789   -7.19043    0.00175    1.48690    0.01145
  35.43661   -6.61257   -0.39601   -7.02293    0.07808    1.52507    0.01908
  35.46056   -6.60778   -0.40798   -7.08993    0.07808    1.35714    0.04961
  35.48331   -6.65803   -0.38644   -7.24307    0.10098    1.44874    0.10305
  35.53011   -6.64726   -0.41874   -7.17129   -0.00588    1.54033    0.07251
  35.57672   -6.65923   -0.38883   -7.15813    0.07045    1.29608   -0.08015
  35.62326   -6.62453   -0.46660   -7.14856   -0.05168    1.44874   -0.12594
  35.66923   -6.62453   -0.38046   -7.18565    0.02465    1.33424   -0.13358
  35.69285   -6.60898   -0.42951   -7.21675    0.00175    1.28081   -0.02672
  35.78689   -6.61257   -0.33500   -7.16650   -0.15091    1.47164   -0.14884
  35.83329   -6.54557   -0.46660   -7.26820    0.11625    1.43347    0.05725
  35.87989   -6.59582   -0.40558   -7.25265    0.09335    1.39531    0.02672
  35.90264   -6.59821   -0.39840   -7.20120    0.00938    1.53270    0.03435
  35.92645   -6.56351   -0.39123   -7.22991   -0.00588    1.54797    0.12594
  35.95014   -6.59462   -0.41994   -7.27777   -0.02115    1.57087    0.11831
  35.99588   -6.64965   -0.40917   -7.18206    0.02465    1.33424    0.11831
  36.04216   -6.53241   -0.40798   -7.23709    0.05518    1.45637    0.13358
  36.11208   -6.50130   -0.41994   -7.25025   -0.02115    1.48690    0.28624
  36.15933   -6.54437   -0.43310   -7.26939   -0.05931    1.44110    0.30150
  36.20587   -6.55514   -0.36610   -7.23709   -0.12038    1.66246    0.38547
  36.22864   -6.47976   -0.39482   -7.23829   -0.05168    1.72353    0.52286
  36.27535   -6.48933   -0.41037   -7.31127   -0.06695    1.68536    0.75185
  36.32177   -6.49173   -0.37089   -7.24786   -0.17381    1.73116    0.86635
  36.34540   -6.48455   -0.37208   -7.31725   -0.05168    1.71589    0.97321
  36.36861   -6.41516   -0.41396   -7.31247   -0.08221    1.85329    1.07244
  36.46103   -6.38764   -0.37926   -7.31605   -0.48676    2.05174    1.75941
  36.48386   -6.38285   -0.35055   -7.38664   -0.54019    2.26547    2.18685
  36.53057   -6.71067   -0.45224   -7.29691   -0.08984    1.97541    1.46935
  36.55424   -6.72383   -0.26201   -7.32443    0.16204    1.21975    0.61446
  36.60076   -6.47378   -0.29432   -7.29332   -0.29594    1.86855    0.14121
  36.67018   -6.39003   -0.49173   -7.36989   -0.04405    1.47927    0.36257
  36.76412   -6.41396   -0.32901   -7.39263   -0.31120    1.83802    0.09541
  36.78748   -6.36610   -0.37807   -7.35793   -0.36463    1.80749   -0.03435
  36.81073   -6.35055   -0.42951   -7.39263   -0.26540    1.64720   -0.16411
  36.83428   -6.35175   -0.47976   -7.43689   -0.21961    1.49454   -0.30150
  36.88072   -6.29432   -0.42353   -7.46561   -0.51729    2.28837   -0.85871
  36.99656   -6.47259   -0.12203   -7.38186    0.09335    0.96023   -0.54576
  37.04356   -6.41755   -0.48574   -7.32682    0.04755    1.27318    0.42363
  37.06631   -6.47976   -0.37926   -7.43570   -0.11274    1.73116    0.44653
  37.11272   -6.29671   -0.33619   -7.38784   -0.30357    1.85329    0.65262
  37.15905   -6.26441   -0.35174   -7.44168   -0.07458    1.31134    0.48470
  37.18347   -6.21416   -0.34696   -7.43091    0.03992    0.96786    0.49233
  37.29909   -6.27996   -0.40798   -7.44766   -0.16617    1.30371    0.13358
  37.32189   -6.26202   -0.38883   -7.51346   -0.14328    1.38767    0.04961
  37.34506   -6.23570   -0.42233   -7.50628   -0.14328    1.28844   -0.21754
  37.41516   -6.27518   -0.33380   -7.49073   -0.27304    1.86855   -0.89688
  37.43817   -6.31466   -0.31226   -7.47877   -0.30357    1.78459   -0.68315
  37.60139   -6.28116   -0.35414   -7.53500   -0.20434    1.96778   -0.46180
  37.62422   -6.27039   -0.33619   -7.48834   -0.25777    1.86092   -0.55339
  37.69462   -6.27637   -0.44626   -7.50270   -0.28067    1.78459   -0.33967
  37.74013   -6.18066   -0.39242   -7.49671   -0.15091    1.99831   -0.52286
  37.78827   -6.17827   -0.34457   -7.57927   -0.17381    2.12044   -0.73658
  37.81198   -6.14238   -0.38166   -7.59482   -0.18907    2.19677   -0.75185
  37.90432   -6.11486   -0.40439   -7.57927   -0.05168    3.13563   -1.80520
  37.92720   -6.07777   -0.35414   -7.63550   -0.12038    3.32646   -2.25555
  37.99745   -5.77029   -0.51326   -7.44287    1.00167    5.38737   -6.37737
  38.02036   -5.67817   -0.56590   -7.40459    2.17716    6.58575   -9.22448
  38.06751   -5.25344   -0.42353   -6.95235    5.41355   13.45545  -18.75047
  38.11335   -3.24586    0.60658   -5.34557   17.00044    0.88390  -20.87244
  38.18363   -7.57568   -1.16530   -9.11306    2.77253    4.70803  -22.68146
  38.23008   -5.95095   -3.73161   -8.83669    2.14662   -9.90917   -3.72872
  38.27622   -6.89611   -1.57328   -7.59721    2.73437   -6.74910    1.07244
  38.32244   -6.96551    0.25364   -7.19163   -0.54019   -0.55111    0.42363
  38.36871   -5.83729   -0.89492   -7.70250   -1.50195   -0.07023    0.56103
  38.39246   -5.58006   -1.87119   -7.52184   -0.57072   -0.95566    1.52278
  38.41626   -5.43889   -2.14995   -7.51227    0.94061   -3.33715    1.82810
  38.43905   -5.41855   -1.53978   -7.57568    1.22303   -5.22250    1.63728
  38.46240   -5.64467   -0.65204   -7.43570    1.11617   -6.37509    0.94268
  38.48528   -5.80140   -0.10887   -7.30648    1.42912   -8.07725    0.14121
  38.53162   -5.74756   -0.90329   -7.42852    2.07029  -11.51210   -0.49996
  38.64819   -6.57069   -0.73579   -7.20359    2.04740  -13.00817   -1.29379
  38.67139   -6.64965   -0.61974   -7.08874    2.37561  -12.74101   -1.26326
  38.78928   -6.79322   -1.21914   -7.13659    2.23822  -10.20685    0.04961
  38.81252   -6.78724   -0.92842   -7.04447    1.98633   -9.93970    0.14884
  38.88165   -6.66162   -1.31845   -6.89611    2.16189   -9.20693    0.27860
  38.90529   -6.73101   -1.43091   -7.07199    2.52827   -9.16113    0.53049
  38.95154   -6.84826   -1.22632   -6.95952    1.96343   -8.81765    0.63736
  38.97434   -6.83390   -1.04806   -6.98585    1.96343   -8.73368    0.56103
  39.02168   -6.88176   -1.17607   -6.83390    2.53591   -8.68025    0.74422
  39.09089   -7.81257   -1.52662   -7.34477    0.14678   -5.69575    1.46935
  39.16076   -7.22752   -1.40818   -7.17727   -3.02855    4.44087    2.04946
  39.18402   -6.67837   -1.28136   -6.95474   -3.01328    4.02106    1.38539
  39.20767   -6.25005   -1.21675   -6.87697   -3.29570    1.89908    1.08770
  39.25454   -6.97388   -1.28375   -7.00020   -3.61629   -0.74957    0.16411
  39.30054   -7.14138   -1.08275   -6.78963   -4.10480    1.64720    0.38547
  39.32339   -7.05524   -1.21077   -6.88535   -4.17350    2.71582    0.54576
  39.39327   -6.73699   -1.08036   -6.89970   -4.10480    0.97549    0.22517
  39.41729   -6.87817   -1.10070   -6.89970   -4.12770    0.91443    0.09541
  39.44041   -6.95235   -1.10070   -6.92722   -4.19640    1.54033    0.04961
  39.46306   -6.96551   -1.09352   -6.86381   -4.40249    2.23494    0.20227
  39.48697   -6.86620   -1.13779   -6.95235   -4.37959    2.40286    0.27097
  39.53280   -6.73819   -1.01336   -6.86860   -4.39486    1.76932    0.27097
  39.55630   -6.84228   -1.03370   -6.99302   -4.34143    1.50217    0.17938
  39.57881   -6.93320   -0.98584   -6.96072   -4.43302    1.54797    0.04961
  39.62625   -6.88535   -0.96670   -6.88295   -4.37959    1.96778   -0.05725
  39.67222   -6.77049   -1.00499   -6.99661   -4.41776    1.91435   -0.09541
  39.71918   -6.85663   -0.97388   -7.02652   -4.34906    1.96778   -0.07251
  39.74197   -6.84467   -0.92602   -6.96551   -4.39486    1.93725   -0.04198
  39.83673   -6.70828   -0.91167   -7.02772   -4.50172    2.11281    0.13358
  39.92886   -6.87338   -0.75135   -7.01456   -4.33379    1.98305    0.62209
  39.95225   -6.81715   -0.80638   -7.06242   -4.24220    2.03648    0.76712
  39.97532   -6.77049   -0.81117   -7.04208   -4.22693    2.29600    0.73658
  39.99863   -6.73580   -0.78245   -7.06840   -4.07427    2.16624    0.59156
  40.06862   -6.69631   -0.66640   -6.98226   -4.33379    1.99831    0.09541
  40.13825   -6.70947   -0.88176   -7.07917   -4.25746    2.28837    0.79765
  40.20782   -6.65444   -0.59821   -7.05404   -4.30326    1.83802    0.64499
  40.25516   -6.72263   -0.69033   -7.20599   -4.15823    2.01358    0.75185
  40.27784   -6.70589   -0.72742   -7.09711   -4.36432    2.24257    0.88924
  40.30070   -6.66042   -0.68076   -7.07199   -4.21166    2.26547    1.00374
  40.32459   -6.66999   -0.58744   -7.14856   -4.24983    2.29600    1.08007
  40.39425   -6.71665   -0.54915   -7.24307   -4.37959    2.06701    1.03427
  40.44073   -6.62094   -0.59821   -7.24547   -4.10480    2.21967    0.74422
  40.46463   -6.49053   -0.49531   -7.09950   -4.44065    2.05174    0.63736
  40.51087   -6.27996   -0.22493   -7.24906   -2.95222   -0.56637    0.53813
  40.53377   -6.21655   -0.08375   -7.38664   -2.75376   -0.83353    1.35486
  40.55660   -5.70329    0.05145   -6.85065   -3.07435   -0.84880    2.87382
  40.64991   -7.38545   -0.58146   -6.69033    0.62002    2.34943    2.27845
  40.69707   -6.44507   -0.14596   -7.11745    0.25364    2.61659   -0.40073
  40.74302   -6.44746   -0.38764   -7.42373    0.51316    2.38760    0.90451
  40.86009   -6.37448   -0.10050   -7.35673    0.42920    2.63949    0.53813
  40.90690   -6.66760   -0.71545   -7.14497    0.31470    2.34180    0.53049
  40.97643   -6.41276   -0.39840   -7.39263    0.58949    2.45629    0.81291
  40.99947   -6.52164   -0.32183   -7.16172    0.19258    2.67765    0.88924
